timestamp,ax,ay,az,gx,gy,gz,mx,my,mz
1777806755.411903,-0.2154781494140625,-0.023942016601562498,9.835380419921874,0.000799387465648855,0.02744563632061069,-0.0005329249770992366,19.05,25.8,48.0
1777806755.4259946,-0.316034619140625,0.09816226806640624,9.677363110351562,-0.0026646248854961837,0.00959264958778626,0.005595712259541985,17.4,26.7,49.35
1777806755.439943,-0.26815058593749996,0.047884033203124995,9.674968908691406,-0.004263399816793893,-0.012523736961832063,0.005862174748091604,17.4,24.9,48.9
1777806755.4538722,-0.3711012573242187,-0.0047884033203125,9.734823950195311,-0.014122511893129772,0.002931087374045802,-0.029310873740458016,17.4,25.2,48.6
1777806755.4677742,-0.3711012573242187,-0.0047884033203125,9.734823950195311,0.009326187099236643,0.04343338563358779,-0.02051761161832061,17.4,25.2,48.6
1777806755.4816775,-0.30406361083984373,0.0430956298828125,9.852139831542969,0.0034640123511450386,0.06821439706870229,-0.014921899358778627,17.55,24.599999999999998,48.0
1777806755.4955838,-0.30885201416015623,0.12449848632812499,9.648632690429688,0.0159877493129771,0.034640123511450384,-0.0261133238778626,17.55,24.599999999999998,48.3
1777806755.5094995,-0.09816226806640624,-0.00239420166015625,9.641450085449218,0.009059724610687023,-0.03650536093129771,-0.00799387465648855,17.55,24.599999999999998,48.3
1777806755.5234025,-0.09816226806640624,-0.00239420166015625,9.641450085449218,0.00959264958778626,-0.016520674290076337,-0.0130566619389313,17.7,25.2,49.35
1777806755.5373237,-0.3112462158203125,0.0718260498046875,9.76116016845703,0.009059724610687023,0.008260337145038169,-0.011724349496183208,17.7,24.9,48.9
1777806755.5512583,-0.28969840087890625,0.06943184814453125,9.715670336914062,0.0018652374198473284,0.031442573648854964,0.0026646248854961837,17.099999999999998,24.599999999999998,48.3
1777806755.565163,-0.3232172241210937,0.1005564697265625,9.617508068847656,0.0021316999083969466,0.024514548946564886,0.0479632479389313,18.15,25.5,48.15
1777806755.5796022,-0.3232172241210937,0.1005564697265625,9.617508068847656,0.006928024702290077,0.06368453476335878,0.010125574564885496,18.75,25.349999999999998,48.3
1777806755.5936837,-0.38786066894531246,0.296881005859375,9.725247143554688,0.010392037053435116,-0.011990811984732825,-0.026646248854961835,17.099999999999998,24.0,49.5
1777806755.6084352,-0.27293898925781246,0.009576806640625,9.813832604980469,0.004263399816793893,0.018385911709923666,-0.02051761161832061,16.2,24.45,48.6
1777806755.6223984,-0.14604630126953125,-0.011971008300781249,9.78031378173828,0.008793262122137404,0.014655436870229008,-0.03810413586259542,18.15,24.9,48.6
1777806755.636322,-0.2609679809570312,0.14604630126953125,9.734823950195311,0.011990811984732825,0.013589586916030535,-0.039969373282442745,15.149999999999999,25.349999999999998,48.75
1777806755.6502388,-0.2609679809570312,0.14604630126953125,9.734823950195311,0.014921899358778627,0.008260337145038169,-0.04396631061068702,17.4,26.25,48.6
1777806755.664146,-0.32561142578124996,0.15562310791015624,9.679757312011718,0.007460949679389314,0.0053292497709923675,-0.024781011435114506,16.2,24.45,49.65
1777806755.6780846,-0.28969840087890625,0.06703764648437499,9.744400756835937,-0.0002664624885496183,-0.017586524244274808,-0.0130566619389313,18.15,25.5,47.85
1777806755.691993,-0.22266075439453123,0.105344873046875,9.718064538574218,0.00639509972519084,-0.014655436870229008,-0.01279019945038168,16.5,25.2,48.9
1777806755.7058952,-0.22266075439453123,0.105344873046875,9.718064538574218,0.012257274473282443,-0.017586524244274808,-0.008260337145038169,16.5,25.2,48.9
1777806755.7197976,-0.354341845703125,0.04548983154296875,9.804255798339844,0.009326187099236643,0.01945176166412214,-0.016520674290076337,16.95,25.5,48.9
1777806755.7337446,-0.28490999755859375,0.1292868896484375,9.775525378417969,0.005062787282442748,0.017320061755725192,-0.03730474839694657,17.849999999999998,24.599999999999998,48.75
1777806755.747653,-0.25139117431640623,0.06703764648437499,9.797073193359374,0.010125574564885496,0.026646248854961835,-0.05569066010687024,18.15,25.5,49.65
1777806755.7615607,-0.25139117431640623,0.06703764648437499,9.797073193359374,0.011724349496183208,0.05302603522137405,-0.018385911709923666,16.5,25.2,49.65
1777806755.775463,-0.28730419921875,0.1149216796875,9.651026892089844,0.011990811984732825,0.02105053659541985,-0.022649311526717557,15.75,24.9,48.6
1777806755.7894018,-0.229843359375,0.11252747802734374,9.648632690429688,0.010924962030534353,-0.000799387465648855,-0.04716386047328244,16.8,25.8,48.3
1777806755.8033137,-0.19871873779296872,0.06703764648437499,9.715670336914062,0.013323124427480917,0.010392037053435116,-0.05462481015267176,17.849999999999998,26.4,49.8
1777806755.8172252,-0.19871873779296872,0.06703764648437499,9.715670336914062,0.0026646248854961837,0.034640123511450384,-0.05062787282442748,17.849999999999998,26.4,49.8
1777806755.8311374,-0.2705447875976562,0.08858546142578125,9.753977563476562,0.0053292497709923675,0.033041348580152674,-0.04849617291603054,19.05,24.599999999999998,48.3
1777806755.845044,-0.18435352783203124,0.04548983154296875,9.746794958496093,0.007460949679389314,-0.0159877493129771,-0.04263399816793894,16.8,24.599999999999998,49.05
1777806755.8589509,-0.30885201416015623,0.13407529296874998,9.770736975097655,0.008526799633587786,-0.023182236503816796,-0.034640123511450384,17.849999999999998,26.849999999999998,49.5
1777806755.872916,-0.30885201416015623,0.13407529296874998,9.770736975097655,0.00639509972519084,0.05009494784732825,-0.016520674290076337,17.4,25.2,48.6
1777806755.8868318,-0.22266075439453123,0.08379705810546874,9.696516723632811,0.0,0.06874732204580153,-0.00319754986259542,18.9,25.5,47.85
1777806755.9007397,-0.19871873779296872,0.07422025146484375,9.651026892089844,-0.0002664624885496183,0.05355896019847329,-0.00479632479389313,15.45,25.5,48.6
1777806755.9146452,-0.24660277099609373,0.13168109130859373,9.708487731933593,-0.004529862305343512,0.010924962030534353,-0.003730474839694657,17.55,25.349999999999998,48.3
1777806755.928598,-0.2537853759765625,0.0430956298828125,9.74200655517578,0.007460949679389314,-0.002398162396946565,-0.00319754986259542,17.55,25.349999999999998,48.3
1777806755.9425108,-0.2537853759765625,0.0430956298828125,9.74200655517578,0.00159877493129771,0.029044411251908403,-0.011990811984732825,18.3,26.4,47.699999999999996
1777806755.956459,-0.2920926025390625,0.11252747802734374,9.651026892089844,0.00639509972519084,0.014122511893129772,-0.020251149129770992,16.5,24.45,47.1
1777806755.9703693,-0.22744915771484372,0.076614453125,9.708487731933593,0.003996937328244275,-0.013856049404580155,-0.014921899358778627,16.5,24.45,47.1
1777806755.9842741,-0.2346317626953125,0.12449848632812499,9.718064538574218,0.007460949679389314,-0.015721286824427482,-0.013323124427480917,17.849999999999998,25.8,49.5
1777806755.9981794,-0.2346317626953125,0.12449848632812499,9.718064538574218,0.004263399816793893,0.02637978636641222,-0.00959264958778626,17.099999999999998,25.8,48.3
1777806756.012079,-0.23702596435546874,0.1149216796875,9.770736975097655,0.0018652374198473284,0.05196018526717557,0.005062787282442748,16.8,26.099999999999998,48.75
1777806756.0259807,-0.2705447875976562,0.06703764648437499,9.674968908691406,0.0002664624885496183,0.04876263540458016,0.014388974381679392,16.2,24.15,47.4
1777806756.03988,-0.23702596435546874,0.12449848632812499,9.662997900390625,0.0053292497709923675,0.02531393641221374,-0.0034640123511450386,17.55,24.599999999999998,48.0
1777806756.0537794,-0.23702596435546874,0.12449848632812499,9.662997900390625,0.0061286372366412215,-0.006928024702290077,-0.00479632479389313,17.099999999999998,24.3,49.05
1777806756.0679362,-0.30406361083984373,0.1388636962890625,9.773131176757811,0.003996937328244275,0.039969373282442745,0.005062787282442748,18.15,24.9,48.9
1777806756.0821466,-0.181959326171875,0.047884033203124995,9.758765966796874,0.002398162396946565,0.04902909789312977,0.00159877493129771,17.099999999999998,26.099999999999998,48.3
1777806756.096131,-0.181959326171875,0.033518823242187495,9.651026892089844,0.004263399816793893,0.033041348580152674,-0.00319754986259542,17.099999999999998,23.25,48.3
1777806756.1101677,-0.181959326171875,0.033518823242187495,9.651026892089844,0.00319754986259542,0.05036141033587787,0.014388974381679392,19.5,25.349999999999998,49.5
1777806756.124185,-0.17956512451171874,0.040701428222656245,9.730035546875,0.0026646248854961837,0.02637978636641222,0.017320061755725192,17.55,25.349999999999998,48.3
1777806756.1381457,-0.2346317626953125,0.0718260498046875,9.777919580078125,0.0,0.028511486274809164,0.024781011435114506,17.849999999999998,26.099999999999998,48.75
1777806756.1520603,-0.20350714111328125,0.1005564697265625,9.737218151855469,0.008793262122137404,0.027978561297709925,0.004263399816793893,18.15,24.9,48.6
1777806756.1660044,-0.20350714111328125,0.1005564697265625,9.737218151855469,0.009059724610687023,0.012523736961832063,-0.010392037053435116,18.15,24.9,48.6
1777806756.179914,-0.24660277099609373,0.10773907470703124,9.696516723632811,0.011990811984732825,0.0034640123511450386,-0.021583461572519086,17.4,24.9,49.35
1777806756.193894,-0.24181436767578124,0.04548983154296875,9.6917283203125,0.011990811984732825,-0.025047473923664125,-0.05116079780152672,16.5,25.2,48.15
1777806756.2079234,-0.277727392578125,0.0718260498046875,9.710881933593749,0.007727412167938932,0.023182236503816796,-0.03224196111450382,17.4,24.45,47.4
1777806756.2219188,-0.16280571289062498,0.07422025146484375,9.70369932861328,0.003730474839694657,0.04822971042748092,-0.00479632479389313,17.55,24.0,48.0
1777806756.235832,-0.16280571289062498,0.07422025146484375,9.70369932861328,0.0013323124427480919,0.039969373282442745,-0.000799387465648855,17.099999999999998,25.349999999999998,47.699999999999996
1777806756.2497451,-0.25139117431640623,0.11013327636718749,9.775525378417969,-0.0010658499541984733,0.03090964867175573,-0.0010658499541984733,17.4,25.95,48.15
1777806756.2636623,-0.3136404174804687,0.06703764648437499,9.682151513671874,0.0026646248854961837,0.02691271134351145,-0.007460949679389314,18.45,25.5,48.6
1777806756.277567,-0.2753331909179687,0.143652099609375,9.725247143554688,0.006661562213740459,0.029310873740458016,-0.012257274473282443,18.45,25.5,48.6
1777806756.2914717,-0.2753331909179687,0.143652099609375,9.725247143554688,0.003996937328244275,0.023182236503816796,-0.010125574564885496,16.5,25.95,48.9
1777806756.3053765,-0.21068974609375,0.055066638183593745,9.689334118652344,0.00319754986259542,0.005862174748091604,-0.005595712259541985,16.349999999999998,27.15,47.25
1777806756.3192847,-0.2537853759765625,0.05746083984375,9.732429748535155,0.0005329249770992366,0.0061286372366412215,0.002931087374045802,16.349999999999998,27.15,47.25
1777806756.3332312,-0.277727392578125,0.062249243164062495,9.6917283203125,-0.00479632479389313,0.02717917383206107,0.005862174748091604,16.8,24.599999999999998,48.3
1777806756.3471534,-0.277727392578125,0.062249243164062495,9.6917283203125,0.003996937328244275,0.11164778270229009,0.006661562213740459,17.099999999999998,24.3,47.25
1777806756.3610637,-0.17956512451171874,0.2825157958984375,9.536105212402344,-0.00479632479389313,-0.0061286372366412215,-0.01279019945038168,17.7,24.9,47.85
1777806756.3749635,-0.16519991455078123,0.18914193115234373,9.708487731933593,0.002398162396946565,0.00639509972519084,-0.014122511893129772,17.7,24.9,48.6
1777806756.388863,-0.3184288208007812,0.009576806640625,9.823409411621093,0.0018652374198473284,0.019984686641221373,-0.00159877493129771,17.099999999999998,25.05,48.3
1777806756.4027677,-0.3184288208007812,0.009576806640625,9.823409411621093,0.005062787282442748,0.031709036137404584,0.0034640123511450386,17.4,25.5,48.15
1777806756.4166687,-0.20829554443359374,0.10773907470703124,9.801861596679688,0.0013323124427480919,0.07087902195419848,0.034107198534351145,17.4,24.9,47.85
1777806756.4305677,-0.22505495605468748,0.1197100830078125,9.744400756835937,-0.003730474839694657,0.024514548946564886,0.01918529917557252,17.4,24.9,47.85
1777806756.4444656,-0.22505495605468748,0.12689268798828124,9.758765966796874,0.0018652374198473284,0.009326187099236643,0.005862174748091604,17.849999999999998,25.8,47.25
1777806756.4583654,-0.22505495605468748,0.12689268798828124,9.758765966796874,0.004263399816793893,0.01945176166412214,-0.0013323124427480919,17.099999999999998,24.3,49.05
1777806756.4722683,-0.3711012573242187,0.21787235107421873,9.785102185058593,-0.0005329249770992366,0.028245023786259545,-0.013323124427480917,15.899999999999999,25.05,47.699999999999996
1777806756.4861705,-0.20350714111328125,0.15562310791015624,9.605537060546874,0.005595712259541985,0.031442573648854964,-0.021849924061068705,17.55,25.349999999999998,48.3
1777806756.5000687,-0.2442085693359375,0.09816226806640624,9.72285294189453,0.004529862305343512,0.04263399816793894,0.008526799633587786,18.9,24.9,49.35
1777806756.5139668,-0.2442085693359375,0.09816226806640624,9.72285294189453,0.0026646248854961837,0.033041348580152674,-0.0005329249770992366,18.45,25.2,48.15
1777806756.5278952,-0.16041151123046873,0.09816226806640624,9.720458740234374,-0.0021316999083969466,0.06128637236641222,0.008526799633587786,17.4,24.9,49.35
1777806756.541807,-0.28012159423828126,0.14125789794921875,9.634267480468749,0.000799387465648855,0.032774886091603055,0.00799387465648855,17.4,24.9,49.35
1777806756.5557075,-0.26815058593749996,0.11731588134765625,9.713276135253906,0.002398162396946565,0.0002664624885496183,-0.006661562213740459,16.5,23.7,47.85
1777806756.5696106,-0.26815058593749996,0.11731588134765625,9.713276135253906,0.00479632479389313,0.011990811984732825,-0.01279019945038168,17.4,25.5,50.699999999999996
1777806756.5835202,-0.2825157958984375,0.08140285644531249,9.698910925292969,0.0034640123511450386,0.03357427355725191,-0.0061286372366412215,17.099999999999998,26.4,48.75
1777806756.597426,-0.32561142578124996,0.07900865478515624,9.751583361816406,0.010924962030534353,0.014921899358778627,-0.013323124427480917,17.55,24.599999999999998,49.5
1777806756.612064,-0.17956512451171874,0.3280056274414062,9.299079248046874,0.02424808645801527,0.12230628224427482,0.0013323124427480919,16.5,24.15,47.1
1777806756.6262453,-0.27293898925781246,0.21308394775390624,9.603142858886718,0.009326187099236643,0.0727442593740458,0.02078407410687023,16.5,24.15,47.1
1777806756.6402526,-0.27293898925781246,0.21308394775390624,9.603142858886718,-0.005862174748091604,0.04849617291603054,0.017586524244274808,18.9,25.2,49.65
1777806756.6541727,-0.21308394775390624,-0.076614453125,9.521740002441407,0.0005329249770992366,-0.013323124427480917,-0.005062787282442748,17.099999999999998,24.599999999999998,48.75
1777806756.668122,-0.23702596435546874,0.11013327636718749,9.68454571533203,0.0018652374198473284,-0.00319754986259542,-0.013589586916030535,17.099999999999998,24.599999999999998,48.75
1777806756.6820467,-0.229843359375,0.0430956298828125,9.636661682128906,0.002398162396946565,-0.0061286372366412215,-0.01971822415267176,16.95,25.2,48.6
1777806756.6959548,-0.229843359375,0.0430956298828125,9.636661682128906,0.005062787282442748,0.0261133238778626,-0.030376723694656493,16.95,24.9,47.1
1777806756.7098587,-0.24181436767578124,0.15322890625,9.823409411621093,0.007460949679389314,0.0130566619389313,-0.010924962030534353,18.75,24.599999999999998,46.949999999999996
1777806756.7237675,-0.3687070556640625,0.0430956298828125,9.943119494628906,0.009326187099236643,0.0770076591908397,0.00479632479389313,17.099999999999998,24.599999999999998,49.8
1777806756.7377667,-0.47884033203125,0.076614453125,9.809044201660155,0.0026646248854961837,0.03837059835114504,-0.01971822415267176,17.849999999999998,24.3,48.75
1777806756.7516735,-0.47884033203125,0.076614453125,9.809044201660155,0.002398162396946565,-0.03970291079389313,-0.02211638654961832,15.899999999999999,25.05,48.3
1777806756.765576,-0.28969840087890625,0.09576806640624999,9.734823950195311,0.006928024702290077,0.01119142451908397,-0.006928024702290077,17.849999999999998,25.05,48.75
1777806756.7794788,-0.2753331909179687,0.105344873046875,9.715670336914062,0.0130566619389313,-0.007194487190839696,-0.02398162396946565,17.849999999999998,25.05,48.75
1777806756.7933865,-0.29448680419921874,0.143652099609375,9.751583361816406,0.010125574564885496,-0.00159877493129771,-0.033041348580152674,17.7,25.95,49.65
1777806756.8073606,-0.29448680419921874,0.143652099609375,9.751583361816406,0.012257274473282443,-0.006928024702290077,-0.024781011435114506,18.3,24.599999999999998,47.25
1777806756.8213422,-0.2753331909179687,0.0718260498046875,9.72285294189453,0.01971822415267176,-0.019984686641221373,-0.034107198534351145,16.5,24.15,48.6
1777806756.8353677,-0.2920926025390625,0.06943184814453125,9.718064538574218,0.015721286824427482,-0.008526799633587786,-0.015188361847328247,17.55,25.8,49.05
1777806756.8493195,-0.28012159423828126,0.1005564697265625,9.773131176757811,-0.007194487190839696,0.016254211801526718,-0.0018652374198473284,16.2,25.5,48.9
1777806756.8632295,-0.28012159423828126,0.1005564697265625,9.773131176757811,-0.007727412167938932,0.013323124427480917,0.008793262122137404,15.45,25.2,47.4
1777806756.8771434,-0.258573779296875,0.10773907470703124,9.732429748535155,0.002398162396946565,0.028511486274809164,0.01119142451908397,17.55,25.05,49.8
1777806756.8911166,-0.27293898925781246,0.09337386474609374,9.677363110351562,-0.002398162396946565,0.029843798717557254,0.0010658499541984733,17.55,25.05,49.8
1777806756.9050262,-0.296881005859375,0.09816226806640624,9.725247143554688,0.0026646248854961837,0.04156814821374046,-0.0021316999083969466,17.55,25.349999999999998,49.05
1777806756.9189396,-0.28490999755859375,0.086191259765625,9.70369932861328,0.0,0.04876263540458016,0.013856049404580155,17.7,25.95,48.6
1777806756.9328907,-0.28490999755859375,0.086191259765625,9.70369932861328,-0.005862174748091604,0.027978561297709925,0.013589586916030535,17.7,25.5,48.9
1777806756.946913,-0.2609679809570312,0.076614453125,9.737218151855469,-0.004263399816793893,0.04423277309923664,0.02424808645801527,17.099999999999998,25.05,47.699999999999996
1777806756.9608698,-0.28730419921875,0.03591302490234375,9.751583361816406,-0.0053292497709923675,0.1390934190229008,0.07007963448854962,16.5,25.2,47.85
1777806756.9747741,-0.26815058593749996,0.02633621826171875,9.727641345214844,-0.003730474839694657,0.19451761664122139,0.08633384629007634,15.899999999999999,25.349999999999998,48.75
1777806756.9886835,-0.26815058593749996,0.02633621826171875,9.727641345214844,-0.014655436870229008,0.1987810164580153,0.09832465827480917,15.75,25.5,49.65
1777806757.0026069,-0.36391865234375,0.040701428222656245,9.686939916992188,-0.006928024702290077,0.13829403155725192,0.08926493366412214,17.55,25.05,48.75
1777806757.016563,-0.3280056274414062,0.1005564697265625,9.598354455566406,0.00799387465648855,-0.06901378453435116,-0.00479632479389313,17.55,25.05,48.75
1777806757.030469,-0.277727392578125,0.0718260498046875,9.792284790039062,0.014655436870229008,-0.05862174748091603,-0.01971822415267176,16.95,25.5,47.85
1777806757.0443761,-0.277727392578125,0.0718260498046875,9.792284790039062,0.012257274473282443,-0.01279019945038168,-0.014655436870229008,17.099999999999998,24.599999999999998,49.8
1777806757.0582817,-0.33758243408203126,0.15083470458984374,9.713276135253906,0.00639509972519084,0.0002664624885496183,-0.01945176166412214,16.5,24.15,48.9
1777806757.0721884,-0.354341845703125,0.105344873046875,9.737218151855469,0.003996937328244275,-0.007194487190839696,-0.016520674290076337,17.4,24.9,49.35
1777806757.0860941,-0.35673604736328124,0.06943184814453125,9.746794958496093,0.009326187099236643,-0.015454824335877864,-0.018652374198473286,16.2,24.15,48.15
1777806757.1000018,-0.35673604736328124,0.06943184814453125,9.746794958496093,0.016787136778625956,-0.029044411251908403,-0.028245023786259545,16.95,24.45,48.6
1777806757.1139166,-0.3399766357421875,0.086191259765625,9.734823950195311,0.005062787282442748,0.028245023786259545,-0.013856049404580155,17.4,24.45,48.6
1777806757.127839,-0.2753331909179687,0.14125789794921875,9.636661682128906,0.003730474839694657,0.02211638654961832,-0.0130566619389313,17.4,24.45,48.6
1777806757.1417625,-0.29448680419921874,0.11731588134765625,9.696516723632811,0.01119142451908397,-0.0034640123511450386,-0.02238284903816794,16.8,23.25,49.05
1777806757.1556706,-0.29448680419921874,0.11731588134765625,9.696516723632811,0.012257274473282443,-0.03863706083969466,-0.030376723694656493,15.6,24.3,49.5
1777806757.1696155,-0.3184288208007812,0.16041151123046873,9.777919580078125,0.006928024702290077,-0.002398162396946565,-0.031176111160305348,16.95,25.5,49.35
1777806757.183548,-0.2657563842773437,0.076614453125,9.775525378417969,0.00799387465648855,0.03224196111450382,-0.013856049404580155,16.8,25.8,48.0
1777806757.197473,-0.3064578125,0.11731588134765625,9.720458740234374,0.0021316999083969466,0.04156814821374046,-0.0018652374198473284,18.3,24.599999999999998,48.3
1777806757.2113745,-0.3064578125,0.11731588134765625,9.720458740234374,0.0013323124427480919,0.015721286824427482,-0.005595712259541985,18.75,26.099999999999998,49.5
1777806757.225269,-0.2753331909179687,0.0526724365234375,9.698910925292969,0.005062787282442748,-0.004529862305343512,0.004529862305343512,17.55,25.349999999999998,47.25
1777806757.23919,-0.32561142578124996,0.15083470458984374,9.617508068847656,0.0010658499541984733,-0.035173048488549616,0.0034640123511450386,17.55,25.349999999999998,47.25
1777806757.25313,-0.2920926025390625,0.06464344482421874,9.773131176757811,-0.0002664624885496183,-0.03863706083969466,-0.005862174748091604,15.75,25.5,47.85
1777806757.267063,-0.3064578125,0.1292868896484375,9.785102185058593,-0.005862174748091604,0.04769678545038168,0.01279019945038168,16.349999999999998,24.3,48.75
1777806757.280967,-0.3064578125,0.1292868896484375,9.785102185058593,-0.00159877493129771,0.0639509972519084,0.013589586916030535,16.2,24.9,48.6
1777806757.2948685,-0.32561142578124996,0.076614453125,9.682151513671874,0.008260337145038169,-0.02131699908396947,-0.015188361847328247,16.8,24.599999999999998,49.05
1777806757.308785,-0.25139117431640623,0.06703764648437499,9.809044201660155,0.004263399816793893,0.020251149129770992,-0.007460949679389314,15.75,25.2,49.949999999999996
1777806757.3226907,-0.28012159423828126,0.06943184814453125,9.773131176757811,-0.005062787282442748,0.05835528499236642,0.007194487190839696,18.75,25.05,48.0
1777806757.3366616,-0.28012159423828126,0.06943184814453125,9.773131176757811,0.002931087374045802,0.013323124427480917,0.003996937328244275,17.099999999999998,25.05,48.75
1777806757.3505743,-0.2537853759765625,0.0909796630859375,9.718064538574218,0.003730474839694657,-0.014388974381679392,-0.013856049404580155,17.099999999999998,25.05,48.75
1777806757.3644845,-0.28969840087890625,0.08140285644531249,9.770736975097655,0.002931087374045802,0.05675651006106871,0.006661562213740459,17.4,24.15,48.9
1777806757.3783894,-0.22744915771484372,0.08379705810546874,9.739612353515625,0.0026646248854961837,0.06208575983206107,-0.0002664624885496183,17.7,24.45,47.4
1777806757.3922935,-0.22744915771484372,0.08379705810546874,9.739612353515625,0.0010658499541984733,0.0639509972519084,0.000799387465648855,17.4,24.9,48.15
1777806757.4062183,-0.2825157958984375,0.10295067138671875,9.639055883789062,0.000799387465648855,0.03597243595419848,0.006928024702290077,17.4,25.5,47.85
1777806757.4201262,-0.2753331909179687,0.08379705810546874,9.696516723632811,0.013323124427480917,-0.013323124427480917,-0.032774886091603055,16.2,24.45,48.6
1777806757.4340353,-0.26336218261718747,0.03591302490234375,9.737218151855469,0.01119142451908397,0.025047473923664125,-0.027978561297709925,17.849999999999998,25.05,47.25
1777806757.4479365,-0.26336218261718747,0.03591302490234375,9.737218151855469,0.006661562213740459,0.04476569807633588,-0.006661562213740459,16.2,24.45,49.949999999999996
1777806757.4618497,-0.3136404174804687,0.055066638183593745,9.708487731933593,-0.0013323124427480919,0.021583461572519086,-0.0034640123511450386,16.2,24.45,49.949999999999996
1777806757.4757543,-0.2825157958984375,0.12210428466796874,9.68454571533203,0.00639509972519084,0.002398162396946565,-0.00639509972519084,15.75,24.15,49.949999999999996
1777806757.489654,-0.27293898925781246,0.031124621582031248,9.672574707031249,0.008260337145038169,0.0018652374198473284,-0.010658499541984735,18.75,25.05,49.05
1777806757.5035522,-0.27293898925781246,0.031124621582031248,9.672574707031249,0.014122511893129772,0.0005329249770992366,-0.02078407410687023,18.15,24.45,48.15
1777806757.517501,-0.2609679809570312,0.08858546142578125,9.782707983398437,0.0061286372366412215,0.03224196111450382,-0.018119449221374047,16.2,25.5,48.6
1777806757.5314527,-0.316034619140625,0.07422025146484375,9.720458740234374,0.002931087374045802,0.02131699908396947,-0.014122511893129772,17.4,25.5,48.15
1777806757.545359,-0.30406361083984373,0.06703764648437499,9.686939916992188,0.00319754986259542,0.01918529917557252,-0.00639509972519084,17.099999999999998,24.0,47.699999999999996
1777806757.5592763,-0.30406361083984373,0.06703764648437499,9.686939916992188,0.002931087374045802,0.028777948763358784,0.003730474839694657,16.8,25.05,49.8
1777806757.573176,-0.3280056274414062,0.105344873046875,9.667786303710937,0.008793262122137404,-0.009059724610687023,-0.013323124427480917,17.55,25.05,48.3
1777806757.5870898,-0.32561142578124996,0.105344873046875,9.696516723632811,0.00959264958778626,-0.013589586916030535,-0.02558039890076336,17.55,25.05,48.3
1777806757.6010423,-0.32082302246093747,0.0909796630859375,9.732429748535155,0.0061286372366412215,0.015188361847328247,-0.020251149129770992,18.15,26.25,48.6
1777806757.6149507,-0.32082302246093747,0.0909796630859375,9.732429748535155,-0.007194487190839696,0.03543951097709924,-0.003730474839694657,17.55,25.349999999999998,48.0
1777806757.6288614,-0.27293898925781246,0.07422025146484375,9.739612353515625,-0.004529862305343512,0.04396631061068702,0.012523736961832063,17.55,24.3,48.75
1777806757.642766,-0.30885201416015623,0.11013327636718749,9.775525378417969,-0.003730474839694657,0.02637978636641222,0.0159877493129771,17.099999999999998,23.55,49.05
1777806757.6567612,-0.3016694091796875,0.0718260498046875,9.749189160156249,-0.002398162396946565,0.0005329249770992366,-0.000799387465648855,18.9,25.5,48.15
1777806757.6707265,-0.2561795776367187,0.10295067138671875,9.746794958496093,0.005062787282442748,0.00799387465648855,-0.011990811984732825,18.15,25.2,48.6
1777806757.684633,-0.2561795776367187,0.10295067138671875,9.746794958496093,0.004529862305343512,0.02078407410687023,-0.013323124427480917,16.5,24.9,48.9
1777806757.6985435,-0.258573779296875,0.10295067138671875,9.718064538574218,0.0018652374198473284,0.0261133238778626,-0.008526799633587786,16.5,24.9,48.9
1777806757.7124474,-0.3399766357421875,0.05985504150390625,9.763554370117188,-0.000799387465648855,0.014655436870229008,0.0010658499541984733,17.55,24.0,48.75
1777806757.726413,-0.3399766357421875,0.06943184814453125,9.718064538574218,0.008526799633587786,0.012257274473282443,-0.0018652374198473284,17.099999999999998,24.599999999999998,48.0
1777806757.7403529,-0.3399766357421875,0.06943184814453125,9.718064538574218,0.005595712259541985,0.017053599267175572,-0.0021316999083969466,16.95,25.5,48.6
1777806757.7542617,-0.28730419921875,0.08858546142578125,9.708487731933593,0.003730474839694657,0.014921899358778627,-0.000799387465648855,16.8,24.599999999999998,48.75
1777806757.768164,-0.296881005859375,-0.0430956298828125,9.718064538574218,0.0021316999083969466,0.034640123511450384,0.005595712259541985,17.849999999999998,24.0,49.05
1777806757.7820883,-0.18914193115234373,0.04548983154296875,9.777919580078125,0.005862174748091604,0.013856049404580155,0.004529862305343512,16.8,25.05,46.949999999999996
1777806757.7964296,-0.18914193115234373,0.04548983154296875,9.777919580078125,0.008793262122137404,0.04423277309923664,-0.00319754986259542,17.55,25.8,48.75
1777806757.8103378,-0.24181436767578124,0.08858546142578125,9.674968908691406,0.003730474839694657,0.034107198534351145,-0.007460949679389314,17.55,25.8,48.75
1777806757.8242397,-0.30406361083984373,0.10295067138671875,9.72285294189453,0.006661562213740459,0.034107198534351145,-0.01119142451908397,15.75,24.45,49.65
1777806757.8381386,-0.3112462158203125,0.0143652099609375,9.746794958496093,0.00639509972519084,0.02558039890076336,-0.013323124427480917,16.5,24.9,49.35
1777806757.8520358,-0.3112462158203125,0.0143652099609375,9.746794958496093,0.007194487190839696,0.008260337145038169,-0.005862174748091604,17.55,25.349999999999998,49.05
1777806757.8659382,-0.28969840087890625,0.11252747802734374,9.679757312011718,0.0026646248854961837,0.010924962030534353,-0.005062787282442748,16.5,25.2,48.6
1777806757.8798363,-0.2657563842773437,0.1005564697265625,9.775525378417969,0.0034640123511450386,0.030110261206106874,0.0053292497709923675,17.099999999999998,25.05,48.75
1777806757.8937333,-0.30406361083984373,0.09576806640624999,9.68454571533203,0.004529862305343512,0.05649004757251909,0.011990811984732825,16.8,25.349999999999998,49.05
1777806757.9076326,-0.30406361083984373,0.09576806640624999,9.68454571533203,-0.002931087374045802,0.05915467245801527,0.0,16.95,24.9,49.65
1777806757.9215333,-0.2609679809570312,0.11013327636718749,9.445125549316407,0.00799387465648855,0.016254211801526718,-0.007727412167938932,16.95,24.9,49.65
1777806757.9354665,-0.277727392578125,0.11731588134765625,9.74200655517578,0.004529862305343512,0.0034640123511450386,-0.00319754986259542,17.849999999999998,23.55,48.0
1777806757.9494069,-0.3327940307617187,0.0718260498046875,9.782707983398437,0.0013323124427480919,0.03703828590839695,-0.005062787282442748,16.2,24.9,48.6
1777806757.9633136,-0.3327940307617187,0.0718260498046875,9.782707983398437,0.0061286372366412215,0.0522266477557252,0.0026646248854961837,17.7,24.45,49.35
1777806757.9772186,-0.354341845703125,0.05746083984375,9.763554370117188,0.000799387465648855,0.033041348580152674,-0.010125574564885496,17.7,24.15,48.9
1777806757.9911199,-0.3064578125,0.08858546142578125,9.70369932861328,0.010125574564885496,0.014921899358778627,-0.006928024702290077,17.849999999999998,23.25,48.0
1777806758.0050187,-0.27293898925781246,0.05985504150390625,9.801861596679688,0.0061286372366412215,0.02691271134351145,-0.0061286372366412215,17.55,25.05,48.75
1777806758.0189161,-0.3232172241210937,0.08140285644531249,9.746794958496093,0.00479632479389313,0.014921899358778627,-0.007460949679389314,17.55,26.099999999999998,48.3
1777806758.0328152,-0.3232172241210937,0.08140285644531249,9.746794958496093,0.005595712259541985,0.03890352332824428,-0.007194487190839696,17.099999999999998,24.3,48.3
1777806758.0467138,-0.3016694091796875,0.12689268798828124,9.749189160156249,0.0053292497709923675,0.04396631061068702,-0.00799387465648855,17.099999999999998,24.3,48.0
1777806758.0606122,-0.23702596435546874,0.0909796630859375,9.715670336914062,0.0010658499541984733,0.04343338563358779,-0.016787136778625956,16.2,24.9,48.9
1777806758.0745077,-0.28969840087890625,0.04548983154296875,9.79946739501953,0.0053292497709923675,0.024781011435114506,-0.015188361847328247,18.75,24.0,47.699999999999996
1777806758.0884082,-0.28969840087890625,0.04548983154296875,9.79946739501953,0.012257274473282443,0.024781011435114506,-0.017320061755725192,17.7,25.2,50.4
1777806758.1023092,-0.26815058593749996,0.0909796630859375,9.708487731933593,0.007727412167938932,0.014122511893129772,-0.004263399816793893,17.7,25.2,49.949999999999996
1777806758.116207,-0.3112462158203125,0.07900865478515624,9.758765966796874,-0.0018652374198473284,0.017586524244274808,0.009326187099236643,17.4,24.15,48.9
1777806758.1301625,-0.35194764404296874,0.09576806640624999,9.789890588378906,-0.0034640123511450386,0.004529862305343512,0.002931087374045802,17.4,25.5,48.6
1777806758.1440816,-0.35194764404296874,0.09576806640624999,9.789890588378906,0.0026646248854961837,0.010924962030534353,0.0002664624885496183,18.75,25.8,49.05
1777806758.1579862,-0.26815058593749996,0.12449848632812499,9.739612353515625,0.009059724610687023,-0.013856049404580155,-0.007460949679389314,18.75,25.8,49.05
1777806758.1718848,-0.30406361083984373,0.09337386474609374,9.78031378173828,0.002931087374045802,0.006661562213740459,-0.009059724610687023,17.55,25.05,48.3
1777806758.1857853,-0.3806780639648437,0.086191259765625,9.777919580078125,0.008260337145038169,0.00985911207633588,-0.00959264958778626,17.55,24.599999999999998,49.05
1777806758.199732,-0.3806780639648437,0.086191259765625,9.777919580078125,0.0002664624885496183,0.015454824335877864,-0.004529862305343512,16.95,25.2,47.85
1777806758.2137063,-0.2561795776367187,0.086191259765625,9.734823950195311,0.0013323124427480919,0.0261133238778626,0.0002664624885496183,17.099999999999998,24.599999999999998,46.949999999999996
1777806758.2277017,-0.26336218261718747,0.0718260498046875,9.758765966796874,0.00639509972519084,0.013856049404580155,-0.00639509972519084,16.349999999999998,24.3,48.0
1777806758.2416346,-0.3495534423828125,0.11252747802734374,9.749189160156249,0.0018652374198473284,0.022649311526717557,-0.01119142451908397,17.55,25.349999999999998,49.5
1777806758.255545,-0.3495534423828125,0.11252747802734374,9.749189160156249,-0.00319754986259542,0.03890352332824428,-0.002931087374045802,15.75,24.45,48.15
1777806758.2694752,-0.258573779296875,0.13168109130859373,9.739612353515625,0.007727412167938932,0.017852986732824427,-0.003996937328244275,15.75,24.45,48.15
1777806758.2833872,-0.296881005859375,0.11013327636718749,9.694122521972655,0.00959264958778626,0.007194487190839696,-0.013323124427480917,16.95,23.7,50.4
1777806758.297364,-0.29927520751953124,0.10295067138671875,9.737218151855469,0.003730474839694657,0.016787136778625956,-0.011724349496183208,16.5,23.7,48.15
1777806758.3113568,-0.29927520751953124,0.10295067138671875,9.737218151855469,0.007460949679389314,0.030110261206106874,-0.010658499541984735,16.5,23.7,48.15
1777806758.3253603,-0.29448680419921874,0.1484405029296875,9.730035546875,0.0026646248854961837,0.035173048488549616,-0.003730474839694657,17.7,24.45,49.65
1777806758.3393183,-0.28490999755859375,0.07422025146484375,9.74200655517578,-0.0010658499541984733,0.05728943503816794,0.013323124427480917,17.4,25.95,48.6
1777806758.3532279,-0.26336218261718747,0.13407529296874998,9.749189160156249,0.004529862305343512,-0.013323124427480917,-0.011457887007633588,17.099999999999998,24.3,48.3
1777806758.3671556,-0.277727392578125,0.047884033203124995,9.708487731933593,0.00959264958778626,-0.018652374198473286,-0.018652374198473286,16.95,25.5,47.85
1777806758.38106,-0.277727392578125,0.047884033203124995,9.708487731933593,-0.0005329249770992366,0.022649311526717557,-0.0061286372366412215,16.2,24.15,48.6
1777806758.3949642,-0.24181436767578124,0.0430956298828125,9.787496386718749,0.003996937328244275,0.04156814821374046,0.00159877493129771,17.55,24.0,48.75
1777806758.4088635,-0.24660277099609373,0.30406361083984373,9.734823950195311,0.013856049404580155,-0.03064318618320611,-0.014388974381679392,16.95,23.4,48.6
1777806758.422766,-0.28012159423828126,0.086191259765625,9.70369932861328,0.0026646248854961837,0.06634915964885496,0.0005329249770992366,16.95,23.4,48.6
1777806758.436667,-0.28012159423828126,0.086191259765625,9.70369932861328,-0.0021316999083969466,0.08153752149618322,0.010392037053435116,17.4,24.15,48.9
1777806758.4505699,-0.3399766357421875,0.1292868896484375,9.730035546875,0.005595712259541985,0.02131699908396947,-0.011457887007633588,16.8,24.3,48.0
1777806758.4644752,-0.32082302246093747,0.1149216796875,9.658209497070311,0.015188361847328247,-0.00479632479389313,-0.01945176166412214,17.099999999999998,24.3,48.3
1777806758.4783802,-0.2920926025390625,0.1197100830078125,9.823409411621093,0.017586524244274808,-0.015721286824427482,-0.029843798717557254,16.95,24.45,49.35
1777806758.49228,-0.2920926025390625,0.1197100830078125,9.823409411621093,0.007194487190839696,0.02584686138931298,-0.02398162396946565,16.2,25.5,48.6
1777806758.506177,-0.32082302246093747,0.040701428222656245,9.74200655517578,0.002398162396946565,0.04769678545038168,-0.0034640123511450386,16.349999999999998,24.3,49.05
1777806758.520079,-0.27293898925781246,0.07900865478515624,9.720458740234374,-0.002398162396946565,0.05435834766412214,0.0010658499541984733,17.099999999999998,25.05,48.3
1777806758.5340183,-0.33518823242187495,0.1005564697265625,9.672574707031249,0.000799387465648855,0.03837059835114504,0.00639509972519084,16.2,24.45,48.9
1777806758.547926,-0.33518823242187495,0.1005564697265625,9.672574707031249,0.003996937328244275,-0.01918529917557252,-0.010658499541984735,16.2,24.45,48.9
1777806758.561828,-0.3327940307617187,0.09576806640624999,9.794678991699218,0.008260337145038169,0.000799387465648855,-0.006661562213740459,17.099999999999998,23.55,48.0
1777806758.5757318,-0.2753331909179687,0.0909796630859375,9.751583361816406,0.012257274473282443,0.020251149129770992,-0.022915774015267176,16.95,26.25,47.85
1777806758.5896306,-0.29448680419921874,0.07422025146484375,9.813832604980469,0.012523736961832063,0.035705973465648855,-0.016254211801526718,17.849999999999998,25.05,48.3
1777806758.603533,-0.29448680419921874,0.07422025146484375,9.813832604980469,0.00319754986259542,0.04476569807633588,-0.022915774015267176,16.5,24.45,48.6
1777806758.6174355,-0.296881005859375,0.1484405029296875,9.734823950195311,0.000799387465648855,0.04369984812213741,-0.011724349496183208,16.349999999999998,24.0,48.75
1777806758.6313426,-0.296881005859375,0.086191259765625,9.68454571533203,-0.002398162396946565,0.014921899358778627,-0.006661562213740459,17.55,25.8,49.5
1777806758.6452444,-0.3016694091796875,0.11013327636718749,9.730035546875,0.004263399816793893,0.0053292497709923675,-0.016254211801526718,17.4,25.5,48.9
1777806758.6591506,-0.3016694091796875,0.11013327636718749,9.730035546875,0.0130566619389313,-0.00799387465648855,-0.034906586,17.4,25.5,48.9
1777806758.6730502,-0.2537853759765625,0.08858546142578125,9.725247143554688,0.007460949679389314,0.0005329249770992366,-0.040502298259541984,17.7,25.2,48.9
1777806758.6869552,-0.28012159423828126,0.05985504150390625,9.708487731933593,0.00985911207633588,0.010924962030534353,-0.016520674290076337,15.899999999999999,25.05,48.3
1777806758.7008576,-0.316034619140625,0.04548983154296875,9.756371765136718,0.003996937328244275,0.0159877493129771,-0.00799387465648855,17.7,24.9,47.4
1777806758.7147548,-0.316034619140625,0.04548983154296875,9.756371765136718,-0.0010658499541984733,0.04183461070229008,0.003730474839694657,17.099999999999998,24.3,49.5
1777806758.7286558,-0.3064578125,0.062249243164062495,9.734823950195311,-0.00159877493129771,-0.002931087374045802,0.010392037053435116,17.7,25.2,49.65
1777806758.7425978,-0.3136404174804687,0.12689268798828124,9.698910925292969,0.010924962030534353,-0.04849617291603054,-0.002398162396946565,17.4,26.25,48.15
1777806758.7565062,-0.24660277099609373,0.0909796630859375,9.737218151855469,0.008793262122137404,-0.039169985816793894,-0.00799387465648855,17.4,25.5,48.6
1777806758.7704077,-0.3327940307617187,0.143652099609375,9.72285294189453,0.005595712259541985,-0.002398162396946565,-0.00799387465648855,17.4,25.5,48.6
1777806758.784304,-0.3327940307617187,0.143652099609375,9.72285294189453,0.016787136778625956,0.015721286824427482,-0.015454824335877864,18.15,24.45,47.4
1777806758.7982047,-0.229843359375,0.0383072265625,9.7683427734375,0.007194487190839696,0.035705973465648855,-0.010658499541984735,17.849999999999998,25.05,49.8
1777806758.8121102,-0.27293898925781246,0.0526724365234375,9.794678991699218,0.007727412167938932,0.028511486274809164,-0.017053599267175572,16.8,25.05,48.75
1777806758.8260095,-0.25139117431640623,0.08858546142578125,9.770736975097655,0.01119142451908397,0.02105053659541985,-0.034640123511450384,16.95,24.15,48.6
1777806758.8399117,-0.25139117431640623,0.08858546142578125,9.770736975097655,0.007460949679389314,0.023448698992366415,-0.04609801051908398,16.349999999999998,24.599999999999998,49.05
1777806758.8538115,-0.28012159423828126,0.09337386474609374,9.765948571777344,0.005595712259541985,0.04076876074809161,-0.06075344738931299,17.55,25.05,46.199999999999996
1777806758.8677173,-0.2753331909179687,0.02154781494140625,9.674968908691406,0.005862174748091604,0.01119142451908397,-0.07007963448854962,17.849999999999998,26.099999999999998,49.05
1777806758.8816197,-0.29448680419921874,0.04548983154296875,9.706093530273437,0.010125574564885496,0.03650536093129771,-0.04929556038167939,17.849999999999998,26.099999999999998,49.05
1777806758.89552,-0.29448680419921874,0.04548983154296875,9.706093530273437,0.011990811984732825,0.04822971042748092,-0.04636447300763359,16.95,24.15,49.65
1777806758.9094183,-0.3136404174804687,0.15322890625,9.65342109375,0.018918836687022902,0.009326187099236643,-0.08153752149618322,16.5,24.15,48.9
1777806758.9233232,-0.28969840087890625,0.086191259765625,9.734823950195311,0.014655436870229008,-0.03650536093129771,-0.07913935909923665,16.95,24.9,48.9
1777806758.9372995,-0.3758896606445312,0.0047884033203125,9.720458740234374,-0.00479632479389313,0.0130566619389313,-0.019984686641221373,15.899999999999999,23.55,48.75
1777806758.951278,-0.3758896606445312,0.0047884033203125,9.720458740234374,-0.005595712259541985,0.06741500960305344,0.02691271134351145,16.95,24.15,48.15
1777806758.965195,-0.26815058593749996,0.08379705810546874,9.770736975097655,-0.011457887007633588,0.10845023283969467,0.05995405992366413,16.8,25.349999999999998,49.05
1777806758.9791026,-0.29927520751953124,0.0909796630859375,9.65342109375,-0.014388974381679392,0.06741500960305344,0.05862174748091603,18.15,26.25,48.9
1777806758.9930022,-0.12449848632812499,0.23223756103515625,9.787496386718749,-0.010125574564885496,0.05728943503816794,0.0479632479389313,18.15,26.25,48.9
1777806759.006909,-0.12449848632812499,0.23223756103515625,9.787496386718749,0.0010658499541984733,0.0959264958778626,0.05142726029007634,17.4,25.2,48.6
1777806759.020864,-0.33758243408203126,0.13168109130859373,9.696516723632811,0.003996937328244275,0.08153752149618322,0.02584686138931298,17.849999999999998,24.599999999999998,48.0
1777806759.0347757,-0.47884033203125,0.05985504150390625,9.804255798339844,0.014122511893129772,0.1148453325648855,0.002931087374045802,16.2,25.5,48.6
1777806759.048674,-0.4285620971679687,0.05985504150390625,9.813832604980469,0.00959264958778626,0.05409188517557253,-0.008260337145038169,18.15,25.2,48.6
1777806759.062579,-0.4285620971679687,0.05985504150390625,9.813832604980469,0.00479632479389313,0.018119449221374047,0.02558039890076336,17.099999999999998,24.599999999999998,46.5
1777806759.0764809,-0.3064578125,0.1484405029296875,9.6917283203125,0.006928024702290077,0.0013323124427480919,0.018918836687022902,18.15,25.2,47.85
1777806759.0904553,-0.28012159423828126,0.0718260498046875,9.859322436523437,-0.0061286372366412215,0.059421134946564896,0.036238898442748094,17.7,25.2,47.85
1777806759.1044247,-0.22744915771484372,0.07900865478515624,9.813832604980469,-0.0061286372366412215,0.13003369441221374,0.05249311024427481,16.5,24.15,47.1
1777806759.118336,-0.22744915771484372,0.07900865478515624,9.813832604980469,-0.009326187099236643,0.10578560795419849,0.06768147209160305,16.5,24.15,47.1
1777806759.13228,-0.316034619140625,0.06943184814453125,9.639055883789062,-0.013856049404580155,0.029310873740458016,0.04423277309923664,16.349999999999998,25.8,50.25
1777806759.1462011,-0.3280056274414062,0.16759411621093748,9.667786303710937,-0.009059724610687023,0.039169985816793894,0.032508423603053435,17.7,24.45,47.85
1777806759.1601126,-0.35673604736328124,0.1005564697265625,9.74200655517578,0.010392037053435116,-0.018385911709923666,-0.022915774015267176,17.7,24.45,47.85
1777806759.174019,-0.35673604736328124,0.0718260498046875,9.801861596679688,0.015721286824427482,0.011990811984732825,-0.039169985816793894,16.95,25.2,47.4
1777806759.1879191,-0.35673604736328124,0.0718260498046875,9.801861596679688,0.016787136778625956,0.039169985816793894,-0.0421010731908397,16.8,24.3,48.75
1777806759.2018435,-0.3687070556640625,0.040701428222656245,9.777919580078125,0.008260337145038169,0.05675651006106871,-0.024514548946564886,17.55,24.3,49.05
1777806759.2165644,-0.3064578125,0.07422025146484375,9.715670336914062,0.0010658499541984733,0.03837059835114504,-0.000799387465648855,16.95,24.45,47.85
1777806759.2309852,-0.4070142822265625,0.062249243164062495,9.777919580078125,0.0002664624885496183,0.02717917383206107,-0.0005329249770992366,17.55,23.55,48.0
1777806759.245056,-0.4070142822265625,0.062249243164062495,9.777919580078125,0.003996937328244275,0.034107198534351145,0.0002664624885496183,16.8,24.599999999999998,47.699999999999996
1777806759.2589998,-0.3591302490234375,0.05027823486328125,9.679757312011718,0.0005329249770992366,0.0479632479389313,-0.00799387465648855,16.8,25.05,48.75
1777806759.27291,-0.3495534423828125,0.10773907470703124,9.756371765136718,0.0021316999083969466,0.034107198534351145,-0.014921899358778627,16.8,25.05,48.75
1777806759.2868412,-0.38786066894531246,0.062249243164062495,9.68454571533203,0.007460949679389314,0.028777948763358784,-0.00959264958778626,17.55,25.349999999999998,49.8
1777806759.3007553,-0.38786066894531246,0.062249243164062495,9.68454571533203,0.0021316999083969466,-0.0159877493129771,-0.014388974381679392,15.0,24.45,47.85
1777806759.3146672,-0.40462008056640625,0.0718260498046875,9.706093530273437,0.0018652374198473284,-0.023182236503816796,-0.042367535679389313,16.8,25.349999999999998,49.5
1777806759.3285854,-0.36152445068359373,0.04548983154296875,9.777919580078125,-0.002931087374045802,0.0522266477557252,-0.0034640123511450386,17.7,24.45,48.15
1777806759.3425324,-0.36152445068359373,0.031124621582031248,9.804255798339844,-0.0005329249770992366,0.10951608279389315,0.021583461572519086,17.7,24.45,47.4
1777806759.3564396,-0.36152445068359373,0.031124621582031248,9.804255798339844,-0.005595712259541985,0.09699234583206108,0.04343338563358779,16.2,24.15,48.15
1777806759.370344,-0.36152445068359373,0.06703764648437499,9.773131176757811,-0.008793262122137404,0.05782236001526718,0.035173048488549616,17.099999999999998,24.3,48.75
1777806759.3842502,-0.3687070556640625,0.09576806640624999,9.698910925292969,0.0034640123511450386,0.01945176166412214,0.015454824335877864,17.4,23.4,48.9
1777806759.3981545,-0.3758896606445312,0.07422025146484375,9.813832604980469,0.011724349496183208,0.02531393641221374,-0.028245023786259545,16.95,24.45,48.9
1777806759.412065,-0.3758896606445312,0.07422025146484375,9.813832604980469,0.006928024702290077,0.05542419761832062,-0.034640123511450384,17.4,24.15,48.9
1777806759.4259708,-0.3806780639648437,0.0909796630859375,9.672574707031249,0.010658499541984735,0.028511486274809164,-0.045298623053435114,17.099999999999998,24.0,49.05
1777806759.439871,-0.43574470214843747,0.1388636962890625,9.670180505371093,0.005862174748091604,0.008526799633587786,-0.042367535679389313,16.349999999999998,24.599999999999998,48.75
1777806759.453773,-0.3806780639648437,0.09576806640624999,9.737218151855469,0.0021316999083969466,0.0010658499541984733,-0.027978561297709925,15.899999999999999,23.55,48.0
1777806759.4676726,-0.4285620971679687,0.15562310791015624,9.710881933593749,0.015721286824427482,0.02424808645801527,0.007194487190839696,15.899999999999999,23.55,48.0
1777806759.481586,-0.4285620971679687,0.15562310791015624,9.710881933593749,-0.005862174748091604,0.01945176166412214,0.00639509972519084,18.75,24.3,48.3
1777806759.4954958,-0.35194764404296874,0.086191259765625,9.651026892089844,0.0005329249770992366,0.013323124427480917,0.03224196111450382,16.5,24.15,47.85
1777806759.509397,-0.5506663818359374,0.08379705810546874,9.713276135253906,-0.002398162396946565,-0.03650536093129771,0.004263399816793893,16.5,24.15,47.85
1777806759.523301,-0.29927520751953124,-0.05746083984375,9.710881933593749,0.023715161480916035,-0.06768147209160305,-0.00799387465648855,15.45,26.7,48.15
1777806759.5372422,-0.29927520751953124,-0.05746083984375,9.710881933593749,0.012523736961832063,-0.08340275891603054,-0.05782236001526718,16.349999999999998,25.05,48.0
1777806759.55115,-0.38307226562499996,0.09337386474609374,9.713276135253906,0.007460949679389314,-0.05995405992366413,-0.06821439706870229,16.8,24.0,48.0
1777806759.5650501,-0.3854664672851562,0.047884033203124995,9.763554370117188,0.014921899358778627,0.03703828590839695,-0.030110261206106874,17.7,23.7,49.65
1777806759.5789533,-0.40222587890625,0.12210428466796874,9.734823950195311,0.012523736961832063,0.033041348580152674,-0.03597243595419848,16.349999999999998,25.05,49.05
1777806759.592881,-0.40222587890625,0.12210428466796874,9.734823950195311,0.0013323124427480919,0.059421134946564896,0.0010658499541984733,16.95,24.9,48.15
1777806759.6068635,-0.3902548706054687,0.1005564697265625,9.672574707031249,0.0013323124427480919,0.029310873740458016,-0.0010658499541984733,17.55,25.05,49.05
1777806759.6207716,-0.411802685546875,0.0909796630859375,9.708487731933593,0.0005329249770992366,0.030110261206106874,0.0021316999083969466,17.55,25.05,49.05
1777806759.6346831,-0.43574470214843747,-0.00239420166015625,9.694122521972655,-0.00479632479389313,0.0610199098778626,0.005062787282442748,17.4,25.2,48.15
1777806759.6486423,-0.43574470214843747,-0.00239420166015625,9.694122521972655,0.00479632479389313,0.08846554619847329,-0.0002664624885496183,16.2,24.9,48.15
1777806759.662564,-0.42377369384765623,0.05985504150390625,9.655815295410155,0.0034640123511450386,0.04423277309923664,-0.014388974381679392,16.95,23.4,48.9
1777806759.6764688,-0.33758243408203126,0.11731588134765625,9.773131176757811,0.005062787282442748,0.06821439706870229,-0.04316692314503817,17.55,23.25,48.3
1777806759.6903715,-0.38307226562499996,0.03591302490234375,9.777919580078125,0.013856049404580155,0.034107198534351145,-0.029044411251908403,19.65,24.45,47.4
1777806759.7043,-0.38307226562499996,0.03591302490234375,9.777919580078125,0.00319754986259542,0.018385911709923666,-0.02051761161832061,16.5,25.95,49.35
1777806759.7182083,-0.3687070556640625,0.15562310791015624,9.536105212402344,0.017053599267175572,-0.018385911709923666,-0.06661562213740459,17.7,24.9,47.4
1777806759.7322283,-0.411802685546875,0.09337386474609374,9.710881933593749,0.016254211801526718,-0.018385911709923666,-0.06581623467175574,17.7,24.9,47.4
1777806759.746228,-0.4213794921875,0.0909796630859375,9.751583361816406,0.013323124427480917,0.020251149129770992,-0.05675651006106871,16.2,24.15,48.15
1777806759.7602355,-0.4213794921875,0.0909796630859375,9.751583361816406,0.010924962030534353,0.02637978636641222,-0.05862174748091603,16.349999999999998,23.55,49.5
1777806759.7742274,-0.39983167724609375,0.08140285644531249,9.708487731933593,0.0034640123511450386,0.011990811984732825,-0.04103522323664122,17.55,24.599999999999998,49.5
1777806759.7882178,-0.37828386230468747,0.0,9.706093530273437,0.00985911207633588,0.008793262122137404,-0.023182236503816796,17.7,25.2,48.15
1777806759.8022087,-0.40462008056640625,0.11252747802734374,9.730035546875,0.0061286372366412215,-0.009059724610687023,-0.03650536093129771,16.5,24.15,48.6
1777806759.8163283,-0.3327940307617187,0.08379705810546874,9.631873278808593,0.00319754986259542,-0.0026646248854961837,-0.03970291079389313,17.4,25.5,48.15
1777806759.8304691,-0.3327940307617187,0.08379705810546874,9.631873278808593,0.00479632479389313,0.0522266477557252,-0.005595712259541985,18.3,26.4,48.3
1777806759.8444853,-0.3902548706054687,0.1292868896484375,9.727641345214844,0.002931087374045802,0.05489127264122138,-0.015188361847328247,17.849999999999998,24.599999999999998,50.55
1777806759.858554,-0.40462008056640625,0.1197100830078125,9.792284790039062,0.0005329249770992366,0.04716386047328244,-0.00985911207633588,17.849999999999998,24.599999999999998,50.55
1777806759.8725765,-0.3902548706054687,0.06943184814453125,9.749189160156249,0.000799387465648855,0.05995405992366413,-0.007727412167938932,16.95,24.15,48.9
1777806759.8865669,-0.3902548706054687,0.06943184814453125,9.749189160156249,0.0010658499541984733,0.06794793458015268,-0.004529862305343512,16.349999999999998,25.349999999999998,49.5
1777806759.900573,-0.3950432739257812,0.13168109130859373,9.739612353515625,0.007460949679389314,0.028245023786259545,-0.007194487190839696,16.95,25.2,48.6
1777806759.9145603,-0.3854664672851562,0.07900865478515624,9.749189160156249,0.010392037053435116,0.02744563632061069,-0.011990811984732825,15.899999999999999,24.3,48.3
1777806759.9285562,-0.48123453369140623,0.09576806640624999,9.7683427734375,0.005862174748091604,0.034373661022900764,-0.012257274473282443,17.849999999999998,25.05,48.75
1777806759.9426055,-0.48123453369140623,0.09576806640624999,9.7683427734375,0.0021316999083969466,0.03357427355725191,-0.00985911207633588,17.849999999999998,25.05,48.0
1777806759.9566505,-0.3854664672851562,0.055066638183593745,9.720458740234374,0.005595712259541985,0.030376723694656493,-0.0002664624885496183,17.7,25.95,48.9
1777806759.9706395,-0.37828386230468747,0.1292868896484375,9.713276135253906,-0.0021316999083969466,0.04476569807633588,0.007460949679389314,17.7,25.95,48.9
1777806759.9846146,-0.39983167724609375,0.12449848632812499,9.732429748535155,-0.008526799633587786,0.04929556038167939,0.00985911207633588,18.15,24.15,47.85
1777806759.9986286,-0.3854664672851562,0.12449848632812499,9.737218151855469,0.0005329249770992366,0.04849617291603054,0.004263399816793893,17.55,24.3,49.05
1777806760.0132685,-0.3854664672851562,0.12449848632812499,9.737218151855469,-0.0061286372366412215,0.06608269716030535,0.00799387465648855,17.849999999999998,24.0,48.0
1777806760.0272925,-0.4525041137695312,-0.0430956298828125,9.739612353515625,0.0013323124427480919,0.07514242177099237,0.02744563632061069,17.55,24.3,49.05
1777806760.0412877,-0.41419688720703124,0.04548983154296875,9.725247143554688,0.004263399816793893,0.017053599267175572,0.007194487190839696,15.45,25.2,47.85
1777806760.055272,-0.4572925170898437,0.11252747802734374,9.679757312011718,0.007194487190839696,-0.007194487190839696,-0.02105053659541985,17.099999999999998,24.599999999999998,48.75
1777806760.0692644,-0.4572925170898437,0.11252747802734374,9.679757312011718,0.005062787282442748,-0.01918529917557252,-0.029843798717557254,16.95,23.7,48.9
1777806760.0832412,-0.4261678955078125,0.0526724365234375,9.744400756835937,0.007460949679389314,0.007727412167938932,-0.027978561297709925,16.95,23.7,48.9
1777806760.0972254,-0.411802685546875,0.076614453125,9.672574707031249,0.00985911207633588,0.04556508554198474,-0.017053599267175572,18.45,25.2,48.15
1777806760.111203,-0.4165910888671875,0.09816226806640624,9.698910925292969,0.003730474839694657,0.04636447300763359,-0.002398162396946565,18.15,25.5,48.9
1777806760.125188,-0.4165910888671875,0.09816226806640624,9.698910925292969,0.0005329249770992366,0.033840736045801526,-0.00799387465648855,16.95,24.15,48.9
1777806760.1392386,-0.3854664672851562,0.10773907470703124,9.789890588378906,0.006661562213740459,0.003996937328244275,-0.009326187099236643,16.95,25.5,49.35
1777806760.1532228,-0.40222587890625,0.06943184814453125,9.734823950195311,0.009059724610687023,-0.014122511893129772,-0.02078407410687023,16.349999999999998,24.3,48.3
1777806760.1672115,-0.4285620971679687,0.0718260498046875,9.727641345214844,0.007194487190839696,-0.018119449221374047,-0.028777948763358784,19.5,24.599999999999998,48.0
1777806760.181193,-0.4285620971679687,0.0718260498046875,9.727641345214844,0.006928024702290077,-0.0026646248854961837,-0.027978561297709925,15.45,24.9,49.65
1777806760.1951983,-0.47644613037109373,0.09337386474609374,9.765948571777344,0.004263399816793893,0.0261133238778626,-0.00799387465648855,16.95,24.45,49.949999999999996
1777806760.2091835,-0.45968671875,0.0909796630859375,9.737218151855469,0.005062787282442748,0.03890352332824428,0.002398162396946565,16.95,24.45,49.949999999999996
1777806760.2231674,-0.43574470214843747,0.05985504150390625,9.698910925292969,0.0005329249770992366,0.028511486274809164,0.00319754986259542,16.8,26.099999999999998,50.25
1777806760.23753,-0.4213794921875,0.11731588134765625,9.730035546875,-0.0026646248854961837,0.0053292497709923675,0.014655436870229008,16.5,24.15,49.65
1777806760.2516713,-0.4213794921875,0.11731588134765625,9.730035546875,0.00159877493129771,0.014921899358778627,0.007194487190839696,17.7,23.7,48.6
1777806760.2656658,-0.430956298828125,0.11252747802734374,9.701305126953125,0.008260337145038169,-0.0010658499541984733,-0.014388974381679392,16.349999999999998,24.3,49.05
1777806760.2796454,-0.430956298828125,0.09337386474609374,9.737218151855469,0.006661562213740459,0.018652374198473286,-0.008526799633587786,16.2,24.9,48.15
1777806760.293633,-0.41419688720703124,0.105344873046875,9.713276135253906,0.008526799633587786,0.005595712259541985,-0.002398162396946565,15.75,24.9,48.9
1777806760.3076189,-0.41419688720703124,0.105344873046875,9.713276135253906,-0.0002664624885496183,0.028511486274809164,0.011990811984732825,15.0,24.15,49.35
1777806760.3216057,-0.40940848388671874,0.1197100830078125,9.70369932861328,0.0013323124427480919,0.04876263540458016,0.01945176166412214,15.0,24.15,49.35
1777806760.3356671,-0.40940848388671874,0.10295067138671875,9.696516723632811,-0.0013323124427480919,0.035705973465648855,0.011724349496183208,17.4,24.45,49.65
1777806760.3496563,-0.430956298828125,0.105344873046875,9.72285294189453,0.0010658499541984733,0.034906586,0.006928024702290077,18.9,24.9,48.6
1777806760.3636875,-0.430956298828125,0.105344873046875,9.72285294189453,0.0013323124427480919,0.0421010731908397,-0.007194487190839696,16.5,25.95,48.6
1777806760.377712,-0.41419688720703124,0.0526724365234375,9.785102185058593,0.00319754986259542,0.05355896019847329,-0.002398162396946565,16.95,25.95,48.6
1777806760.3917065,-0.46686932373046874,0.0383072265625,9.696516723632811,0.005062787282442748,0.04583154803053435,-0.0053292497709923675,16.95,25.5,48.6
1777806760.4056976,-0.4572925170898437,0.09816226806640624,9.612719665527344,0.0061286372366412215,0.04343338563358779,-0.003996937328244275,18.15,24.15,49.35
1777806760.419685,-0.4572925170898437,0.09816226806640624,9.612719665527344,0.002398162396946565,0.012257274473282443,-0.010658499541984735,16.5,25.95,48.15
1777806760.433668,-0.4285620971679687,0.09576806640624999,9.670180505371093,0.004529862305343512,-0.0010658499541984733,-0.0021316999083969466,16.5,25.95,48.15
1777806760.4477398,-0.41898529052734373,0.09337386474609374,9.85692823486328,-0.009059724610687023,0.02105053659541985,0.015454824335877864,16.349999999999998,26.849999999999998,46.949999999999996
1777806760.4618468,-0.4213794921875,0.0909796630859375,9.746794958496093,-0.0002664624885496183,0.0450321605648855,0.021583461572519086,17.7,24.9,47.1
1777806760.475912,-0.41898529052734373,0.06464344482421874,9.70369932861328,-0.0026646248854961837,0.06208575983206107,0.0261133238778626,15.6,24.599999999999998,48.0
1777806760.4899096,-0.41898529052734373,0.06464344482421874,9.70369932861328,0.005862174748091604,0.04369984812213741,0.015454824335877864,16.8,25.05,48.75
1777806760.5039153,-0.4213794921875,0.07422025146484375,9.677363110351562,0.00159877493129771,0.008526799633587786,-0.006928024702290077,16.5,24.15,47.4
1777806760.517911,-0.42377369384765623,0.09816226806640624,9.696516723632811,0.0026646248854961837,0.0021316999083969466,-0.0159877493129771,16.2,24.15,48.15
1777806760.5319529,-0.42377369384765623,0.07422025146484375,9.72285294189453,0.0026646248854961837,0.02078407410687023,-0.00985911207633588,17.099999999999998,23.25,49.8
1777806760.5459647,-0.42377369384765623,0.07422025146484375,9.72285294189453,0.00479632479389313,0.039969373282442745,-0.011457887007633588,17.55,25.05,47.25
1777806760.5599573,-0.43574470214843747,0.0718260498046875,9.730035546875,0.009059724610687023,-0.027978561297709925,-0.026646248854961835,17.55,25.05,47.25
1777806760.5739422,-0.40940848388671874,0.08379705810546874,9.725247143554688,0.013589586916030535,-0.02238284903816794,-0.02771209880916031,18.3,24.3,48.0
1777806760.5879245,-0.41898529052734373,0.11731588134765625,9.849745629882811,0.0034640123511450386,0.01945176166412214,0.0005329249770992366,18.15,24.9,49.949999999999996
1777806760.601906,-0.41898529052734373,0.11731588134765625,9.849745629882811,-0.002931087374045802,0.07514242177099237,0.00639509972519084,16.5,24.9,49.35
1777806760.6158853,-0.4836287353515625,0.0430956298828125,9.670180505371093,0.0,0.04290046065648855,0.005595712259541985,16.2,24.15,49.35
1777806760.6298666,-0.45010991210937495,0.09816226806640624,9.670180505371093,0.009059724610687023,-0.004263399816793893,-0.017852986732824427,16.95,24.9,47.4
1777806760.6438472,-0.430956298828125,0.11731588134765625,9.682151513671874,0.00985911207633588,-0.02398162396946565,-0.04023583577099237,18.45,24.15,48.6
1777806760.6578252,-0.430956298828125,0.11731588134765625,9.682151513671874,0.012523736961832063,-0.030110261206106874,-0.03650536093129771,17.099999999999998,24.599999999999998,48.3
1777806760.6718087,-0.40462008056640625,0.11252747802734374,9.765948571777344,0.00799387465648855,-0.0061286372366412215,-0.02531393641221374,17.099999999999998,24.599999999999998,48.3
1777806760.6857946,-0.39264907226562495,0.055066638183593745,9.74200655517578,0.00319754986259542,0.019984686641221373,-0.00799387465648855,19.2,24.9,47.85
1777806760.6997736,-0.4261678955078125,0.08858546142578125,9.694122521972655,0.0013323124427480919,-0.01119142451908397,-0.0002664624885496183,18.15,25.5,48.15
1777806760.7137542,-0.4261678955078125,0.08858546142578125,9.694122521972655,0.0,-0.09352833348091605,-0.005595712259541985,18.15,25.5,48.15
1777806760.7277405,-0.411802685546875,0.028730419921875,9.758765966796874,0.0018652374198473284,-0.07860643412213741,0.0026646248854961837,17.7,25.2,48.9
1777806760.741787,-0.40222587890625,0.13646949462890623,9.835380419921874,0.01119142451908397,-0.04743032296183207,-0.02051761161832061,18.15,25.2,48.15
1777806760.755776,-0.34237083740234375,0.05027823486328125,9.730035546875,0.016787136778625956,-0.04183461070229008,-0.029310873740458016,18.75,24.599999999999998,49.05
1777806760.7697613,-0.36152445068359373,0.11252747802734374,9.698910925292969,0.002931087374045802,-0.023182236503816796,-0.01918529917557252,15.899999999999999,24.0,48.0
1777806760.7837365,-0.36152445068359373,0.11252747802734374,9.698910925292969,0.0018652374198473284,-0.02424808645801527,-0.02744563632061069,15.6,25.8,48.3
1777806760.7977242,-0.32561142578124996,0.08858546142578125,9.725247143554688,-0.0002664624885496183,-0.011990811984732825,-0.02078407410687023,17.849999999999998,25.349999999999998,49.5
1777806760.811713,-0.3280056274414062,0.1005564697265625,9.72285294189453,0.0026646248854961837,0.04023583577099237,-0.009059724610687023,16.5,25.95,48.15
1777806760.8256965,-0.3495534423828125,0.14125789794921875,9.756371765136718,0.004529862305343512,0.015721286824427482,-0.003730474839694657,17.55,25.8,47.699999999999996
1777806760.8396816,-0.3495534423828125,0.14125789794921875,9.756371765136718,0.0002664624885496183,-0.07860643412213741,-0.004263399816793893,16.349999999999998,25.8,49.5
1777806760.8536687,-0.47165772705078124,0.24899697265624998,9.890447058105469,0.013323124427480917,0.006661562213740459,0.0026646248854961837,17.7,24.9,47.85
1777806760.8677325,-0.39743747558593745,0.20829554443359374,9.866505041503906,0.01279019945038168,0.028511486274809164,-0.015721286824427482,17.849999999999998,25.05,49.8
1777806760.8817277,-0.3327940307617187,0.0718260498046875,9.682151513671874,0.004263399816793893,0.03810413586259542,-0.007460949679389314,17.849999999999998,24.0,48.75
1777806760.8957245,-0.3327940307617187,0.0718260498046875,9.682151513671874,0.0021316999083969466,0.02637978636641222,-0.007194487190839696,16.5,23.7,48.15
1777806760.909704,-0.3327940307617187,0.14604630126953125,9.74200655517578,0.00319754986259542,0.023182236503816796,0.00479632479389313,16.5,23.7,48.15
1777806760.9236898,-0.3758896606445312,0.062249243164062495,9.72285294189453,-0.0021316999083969466,0.0522266477557252,0.0026646248854961837,16.349999999999998,24.3,48.0
1777806760.9377377,-0.3399766357421875,0.08379705810546874,9.670180505371093,-0.005062787282442748,0.07833997163358779,0.018119449221374047,18.15,25.2,48.15
1777806760.9517858,-0.3399766357421875,0.08379705810546874,9.670180505371093,-0.005595712259541985,0.07061255946564887,0.014388974381679392,18.15,25.2,48.15
1777806760.9657803,-0.36391865234375,0.05746083984375,9.725247143554688,-0.00479632479389313,0.03943644830534352,0.008260337145038169,16.95,23.7,48.6
1777806760.9797614,-0.373495458984375,0.07422025146484375,9.732429748535155,0.0002664624885496183,0.05755589752671757,0.00799387465648855,17.099999999999998,24.599999999999998,48.3
1777806760.993897,-0.38786066894531246,0.0430956298828125,9.60793126220703,0.0018652374198473284,0.00985911207633588,-0.0005329249770992366,16.349999999999998,25.8,49.8
1777806761.0079682,-0.29927520751953124,0.062249243164062495,9.682151513671874,0.0021316999083969466,-0.02744563632061069,0.005595712259541985,16.8,24.0,48.0
1777806761.0220568,-0.29927520751953124,0.062249243164062495,9.682151513671874,0.000799387465648855,0.00479632479389313,0.003996937328244275,16.8,24.0,48.0
1777806761.0360904,-0.35673604736328124,0.076614453125,9.593566052246093,0.0021316999083969466,0.0018652374198473284,0.003996937328244275,17.4,25.5,48.15
1777806761.0500822,-0.39743747558593745,0.0430956298828125,9.770736975097655,0.002398162396946565,0.06794793458015268,0.012257274473282443,17.099999999999998,24.0,48.0
1777806761.0640812,-0.3447650390625,0.13407529296874998,9.670180505371093,0.0053292497709923675,0.04556508554198474,0.011990811984732825,17.099999999999998,24.0,48.0
1777806761.0781968,-0.3447650390625,0.13407529296874998,9.670180505371093,0.005862174748091604,-0.010125574564885496,-0.0010658499541984733,16.95,25.5,49.35
1777806761.0922184,-0.296881005859375,0.15083470458984374,9.701305126953125,0.009326187099236643,-0.06341807227480917,-0.011990811984732825,16.95,24.15,48.15
1777806761.1062095,-0.30885201416015623,0.06464344482421874,9.751583361816406,-0.000799387465648855,-0.06794793458015268,-0.00479632479389313,17.099999999999998,25.349999999999998,49.05
1777806761.1202066,-0.2825157958984375,0.11252747802734374,9.777919580078125,0.004529862305343512,-0.008793262122137404,0.0018652374198473284,17.55,25.05,47.699999999999996
1777806761.1342502,-0.2825157958984375,0.11252747802734374,9.777919580078125,-0.0002664624885496183,-0.03224196111450382,0.00985911207633588,15.899999999999999,25.349999999999998,49.05
1777806761.1482441,-0.3447650390625,0.06703764648437499,9.65342109375,0.013589586916030535,-0.19371822917557255,0.0130566619389313,15.899999999999999,25.349999999999998,47.699999999999996
1777806761.1623073,-0.2346317626953125,0.13168109130859373,9.804255798339844,0.015188361847328247,-0.17799694235114505,0.04023583577099237,17.4,25.95,48.6
1777806761.176482,-0.2705447875976562,0.0526724365234375,10.105925207519531,0.018918836687022902,-0.15854518068702292,0.0159877493129771,17.4,25.95,48.9
1777806761.190488,-0.2705447875976562,0.0526724365234375,10.105925207519531,-0.017586524244274808,-0.15374885589312978,0.00639509972519084,17.849999999999998,23.55,47.25
1777806761.2044902,-0.19871873779296872,0.19153613281249998,9.366116894531249,0.008260337145038169,-0.010125574564885496,0.01279019945038168,16.349999999999998,25.8,48.0
1777806761.2184944,-0.22026655273437498,0.086191259765625,9.404424121093749,-0.011457887007633588,-0.1393598815114504,0.034373661022900764,15.45,24.9,47.85
1777806761.2324731,-0.22026655273437498,0.16041151123046873,9.277531433105468,-0.0159877493129771,-0.1889219043816794,0.0061286372366412215,16.5,24.45,48.15
1777806761.246498,0.0047884033203125,0.1484405029296875,9.945513696289062,-0.005062787282442748,-0.13429709422900765,0.0053292497709923675,18.45,24.9,49.65
1777806761.260551,0.0047884033203125,0.1484405029296875,9.945513696289062,0.00799387465648855,-0.0770076591908397,0.017053599267175572,18.45,24.9,49.65
1777806761.2745402,-0.1388636962890625,0.086191259765625,10.175357055664062,0.012523736961832063,0.018385911709923666,-0.027978561297709925,18.15,25.2,48.6
1777806761.2885246,-0.09816226806640624,0.15562310791015624,9.765948571777344,0.006928024702290077,0.00959264958778626,-0.00479632479389313,15.75,24.45,49.35
1777806761.3025148,-0.06943184814453125,0.076614453125,9.682151513671874,0.0061286372366412215,-0.03090964867175573,-0.029310873740458016,15.75,24.45,49.35
1777806761.316506,-0.06943184814453125,0.076614453125,9.682151513671874,-0.0005329249770992366,-0.05915467245801527,-0.014122511893129772,17.4,24.45,49.65
1777806761.330505,-0.12210428466796874,0.08858546142578125,9.9981861328125,-0.0010658499541984733,-0.03677182341984733,-0.04689739798473283,16.349999999999998,24.3,48.75
1777806761.3445618,-0.06943184814453125,0.086191259765625,9.701305126953125,0.0013323124427480919,0.012257274473282443,-0.034640123511450384,15.45,24.9,48.9
1777806761.3585498,-0.055066638183593745,0.062249243164062495,9.713276135253906,0.009059724610687023,0.002398162396946565,-0.028777948763358784,17.099999999999998,25.8,48.3
1777806761.3725443,-0.055066638183593745,0.062249243164062495,9.713276135253906,0.006928024702290077,0.02531393641221374,-0.02211638654961832,17.099999999999998,24.3,48.75
1777806761.386524,-0.076614453125,0.10295067138671875,9.739612353515625,0.00159877493129771,0.014921899358778627,-0.020251149129770992,17.55,25.05,47.25
1777806761.4005113,-0.08858546142578125,0.17238251953125,9.758765966796874,0.0010658499541984733,0.00319754986259542,-0.029577336229007635,17.4,24.45,46.8
1777806761.4144914,-0.08140285644531249,0.0430956298828125,9.737218151855469,0.005062787282442748,-0.02691271134351145,-0.028511486274809164,17.849999999999998,25.05,46.8
1777806761.4284902,-0.08140285644531249,0.0430956298828125,9.737218151855469,0.009326187099236643,-0.02637978636641222,-0.031176111160305348,17.4,24.9,48.6
1777806761.442474,-0.05027823486328125,0.09337386474609374,9.773131176757811,0.00799387465648855,-0.008793262122137404,-0.0159877493129771,17.7,26.7,48.15
1777806761.4564588,-0.12449848632812499,0.055066638183593745,9.701305126953125,-0.03224196111450382,0.016254211801526718,0.033307811068702294,15.75,24.15,49.35
1777806761.4704423,-0.08858546142578125,0.031124621582031248,9.993397729492187,-0.00959264958778626,-0.08739969624427482,-0.010125574564885496,17.099999999999998,25.349999999999998,48.75
1777806761.4844365,-0.023942016601562498,0.06703764648437499,9.696516723632811,-0.0005329249770992366,-0.015454824335877864,-0.00479632479389313,15.45,26.25,48.15
1777806761.498464,-0.023942016601562498,0.06703764648437499,9.696516723632811,0.006928024702290077,-0.013589586916030535,-0.00479632479389313,15.45,26.25,48.15
1777806761.5124454,-0.06703764648437499,0.076614453125,9.74200655517578,0.0034640123511450386,-0.0013323124427480919,-0.016520674290076337,16.349999999999998,24.599999999999998,47.25
1777806761.526443,0.0,0.06943184814453125,9.777919580078125,0.002931087374045802,0.016787136778625956,-0.015188361847328247,17.4,25.2,48.9
1777806761.5404963,-0.05027823486328125,0.105344873046875,9.686939916992188,0.0010658499541984733,0.024514548946564886,-0.008793262122137404,17.099999999999998,25.349999999999998,49.05
1777806761.5544899,-0.05027823486328125,0.105344873046875,9.686939916992188,0.0005329249770992366,0.008793262122137404,-0.00959264958778626,17.7,24.15,48.9
1777806761.5684724,-0.07422025146484375,0.10295067138671875,9.679757312011718,0.00319754986259542,0.008260337145038169,-0.006928024702290077,16.8,25.05,49.05
1777806761.5824552,-0.07422025146484375,0.062249243164062495,9.730035546875,-0.000799387465648855,0.017852986732824427,-0.006928024702290077,16.8,25.05,49.8
1777806761.5964482,0.009576806640625,0.0909796630859375,9.725247143554688,0.005595712259541985,0.010392037053435116,-0.0010658499541984733,17.55,24.599999999999998,46.949999999999996
1777806761.6104238,0.009576806640625,0.0909796630859375,9.725247143554688,0.005062787282442748,-0.00159877493129771,-0.023448698992366415,17.55,24.599999999999998,46.949999999999996
1777806761.6244,0.0,0.12210428466796874,9.746794958496093,0.00479632479389313,0.010658499541984735,-0.02584686138931298,17.849999999999998,24.599999999999998,49.05
1777806761.6383753,-0.05985504150390625,0.0383072265625,9.787496386718749,0.002398162396946565,0.04636447300763359,-0.02078407410687023,18.45,25.95,48.9
1777806761.6523576,-0.13168109130859373,0.062249243164062495,9.737218151855469,0.004263399816793893,0.04929556038167939,-0.030376723694656493,18.45,25.95,48.9
1777806761.6663356,-0.13168109130859373,0.062249243164062495,9.737218151855469,0.002398162396946565,0.028511486274809164,-0.00479632479389313,18.3,25.349999999999998,48.0
1777806761.68031,-0.07900865478515624,0.1005564697265625,9.6917283203125,0.008793262122137404,0.0002664624885496183,-0.00639509972519084,15.6,24.599999999999998,46.949999999999996
1777806761.6943426,-0.016759411621093748,0.09576806640624999,9.74200655517578,0.0034640123511450386,0.010924962030534353,-0.010924962030534353,17.4,24.45,48.6
1777806761.7083294,-0.055066638183593745,0.0718260498046875,9.725247143554688,0.00479632479389313,0.019984686641221373,-0.01918529917557252,16.2,25.95,48.15
1777806761.722314,-0.055066638183593745,0.0718260498046875,9.725247143554688,0.00799387465648855,0.02424808645801527,-0.035705973465648855,17.7,25.2,48.15
1777806761.736361,-0.03591302490234375,0.05985504150390625,9.706093530273437,0.0026646248854961837,0.014921899358778627,-0.028245023786259545,17.55,25.05,49.05
1777806761.7503517,-0.028730419921875,0.040701428222656245,9.835380419921874,0.008526799633587786,0.018385911709923666,-0.008793262122137404,16.8,24.599999999999998,47.25
1777806761.7643435,0.009576806640625,-0.105344873046875,9.81862100830078,0.02211638654961832,0.01918529917557252,-0.014921899358778627,16.8,24.599999999999998,47.25
1777806761.7783797,0.0,0.08140285644531249,9.718064538574218,0.0,0.011457887007633588,-0.03597243595419848,16.95,26.25,49.65
1777806761.7923865,0.0,0.08140285644531249,9.718064538574218,0.007194487190839696,0.028511486274809164,-0.018385911709923666,16.5,26.25,47.4
1777806761.8063648,-0.06464344482421874,0.13168109130859373,9.720458740234374,0.006661562213740459,0.022915774015267176,-0.017320061755725192,16.95,25.2,47.85
1777806761.8203783,0.00239420166015625,0.05027823486328125,9.730035546875,0.00479632479389313,0.040502298259541984,0.007460949679389314,15.899999999999999,24.0,48.75
1777806761.8343642,0.016759411621093748,0.22505495605468748,9.627084875488281,-0.004529862305343512,0.05702297254961833,0.006661562213740459,16.2,25.5,48.6
1777806761.8484266,0.016759411621093748,0.22505495605468748,9.627084875488281,0.008793262122137404,0.03810413586259542,0.00959264958778626,15.899999999999999,25.05,46.949999999999996
1777806761.862468,0.033518823242187495,0.17238251953125,9.677363110351562,0.003730474839694657,0.012257274473282443,-0.00479632479389313,15.899999999999999,26.099999999999998,49.05
1777806761.876466,-0.05985504150390625,0.24660277099609373,9.641450085449218,0.006661562213740459,0.000799387465648855,-0.04023583577099237,18.15,25.5,47.4
1777806761.8905132,-0.0718260498046875,0.016759411621093748,9.753977563476562,0.005595712259541985,0.02131699908396947,-0.026646248854961835,18.15,25.5,47.4
1777806761.904619,-0.0718260498046875,0.016759411621093748,9.753977563476562,-0.002398162396946565,0.02584686138931298,0.004529862305343512,18.15,25.5,47.85
1777806761.9186895,0.0,0.086191259765625,9.734823950195311,-0.003996937328244275,0.01279019945038168,0.005062787282442748,18.3,26.4,47.699999999999996
1777806761.9327369,-0.06703764648437499,0.06943184814453125,9.696516723632811,0.0034640123511450386,0.004263399816793893,-0.003730474839694657,16.5,24.9,48.6
1777806761.9467728,-0.07900865478515624,0.0430956298828125,9.789890588378906,-0.00959264958778626,0.05275957273282444,0.009059724610687023,16.8,25.05,48.3
1777806761.9607995,-0.07900865478515624,0.0430956298828125,9.789890588378906,-0.006661562213740459,0.1060520704427481,0.03810413586259542,14.85,24.0,48.75
1777806761.9747875,-0.06703764648437499,0.02154781494140625,9.718064538574218,0.004529862305343512,-0.03090964867175573,0.0021316999083969466,17.55,25.8,48.3
1777806761.9887903,-0.08140285644531249,0.1005564697265625,9.715670336914062,0.0026646248854961837,-0.05036141033587787,-0.01918529917557252,17.4,26.25,47.85
1777806762.0027833,0.011971008300781249,0.023942016601562498,9.773131176757811,-0.00799387465648855,0.042367535679389313,-0.018918836687022902,17.4,26.25,47.85
1777806762.016833,-0.033518823242187495,0.02633621826171875,9.78031378173828,0.004529862305343512,0.0871332337557252,-0.005862174748091604,16.349999999999998,25.8,47.699999999999996
1777806762.0308304,-0.033518823242187495,0.02633621826171875,9.78031378173828,0.012257274473282443,0.06448392222900765,0.026646248854961835,14.549999999999999,25.95,47.4
1777806762.0448318,-0.11013327636718749,0.2059013427734375,9.598354455566406,0.000799387465648855,-0.00159877493129771,-0.0013323124427480919,16.8,23.55,48.0
1777806762.0588598,-0.06943184814453125,0.08379705810546874,9.753977563476562,0.005595712259541985,0.02691271134351145,-0.010658499541984735,16.8,25.05,48.3
1777806762.0728414,-0.07422025146484375,0.0909796630859375,9.701305126953125,0.00959264958778626,0.03597243595419848,-0.02051761161832061,17.7,25.95,48.6
1777806762.0868201,-0.07422025146484375,0.0909796630859375,9.701305126953125,0.00985911207633588,0.04449923558778626,-0.03064318618320611,16.95,25.95,48.15
1777806762.1007993,-0.1005564697265625,0.0718260498046875,9.698910925292969,0.00799387465648855,0.017586524244274808,-0.030110261206106874,16.8,23.55,49.5
1777806762.114775,-0.0383072265625,0.11252747802734374,9.732429748535155,0.011990811984732825,0.008260337145038169,-0.03890352332824428,18.3,23.55,49.5
1777806762.1287637,-0.09576806640624999,0.07422025146484375,9.758765966796874,0.002931087374045802,0.05249311024427481,-0.03090964867175573,17.4,24.45,48.15
1777806762.142812,-0.09576806640624999,0.07422025146484375,9.758765966796874,0.003996937328244275,0.09113017108396948,-0.014388974381679392,17.7,24.9,47.4
1777806762.1568208,-0.09816226806640624,0.10295067138671875,9.718064538574218,0.0053292497709923675,0.055157735129771,-0.029577336229007635,17.7,24.9,48.15
1777806762.1708152,-0.08379705810546874,0.06703764648437499,9.696516723632811,0.0061286372366412215,0.034640123511450384,-0.030110261206106874,17.7,24.9,48.15
1777806762.184854,-0.13168109130859373,0.11013327636718749,9.792284790039062,0.009059724610687023,0.028777948763358784,-0.023448698992366415,16.8,25.05,47.699999999999996
1777806762.19889,-0.13168109130859373,0.11013327636718749,9.792284790039062,-0.0026646248854961837,-0.007460949679389314,-0.023182236503816796,16.8,25.05,47.699999999999996
1777806762.212883,-0.06464344482421874,0.11013327636718749,9.746794958496093,0.010658499541984735,-0.0002664624885496183,-0.03943644830534352,16.95,25.2,47.85
1777806762.2268817,-0.16280571289062498,0.0,9.782707983398437,0.005595712259541985,0.030376723694656493,-0.01918529917557252,18.3,24.599999999999998,47.25
1777806762.2415698,-0.13168109130859373,0.0526724365234375,9.744400756835937,0.000799387465648855,0.06048698490076337,0.002931087374045802,18.3,24.599999999999998,47.25
1777806762.2555604,-0.12449848632812499,0.08140285644531249,9.706093530273437,-0.0061286372366412215,0.05755589752671757,0.018918836687022902,17.099999999999998,24.3,47.699999999999996
1777806762.269544,-0.12449848632812499,0.08140285644531249,9.706093530273437,-0.00985911207633588,0.06128637236641222,0.033840736045801526,16.5,25.5,48.15
1777806762.2835212,-0.12449848632812499,0.04548983154296875,9.739612353515625,-0.000799387465648855,0.033840736045801526,0.017852986732824427,16.2,23.7,47.85
1777806762.2975,-0.10773907470703124,0.03591302490234375,9.76116016845703,0.0034640123511450386,0.018385911709923666,0.009059724610687023,17.55,25.8,49.05
1777806762.3114805,-0.06703764648437499,0.09337386474609374,9.797073193359374,0.00479632479389313,0.028777948763358784,-0.005595712259541985,15.6,24.599999999999998,49.5
1777806762.3254716,-0.06703764648437499,0.09337386474609374,9.797073193359374,0.009059724610687023,0.06155283485496184,0.0021316999083969466,17.4,24.9,47.4
1777806762.3395293,-0.1867477294921875,0.08379705810546874,9.710881933593749,0.0013323124427480919,0.07381010932824428,0.003730474839694657,16.5,23.7,47.4
1777806762.353532,-0.10295067138671875,0.062249243164062495,9.694122521972655,0.0026646248854961837,0.05915467245801527,0.0053292497709923675,16.5,23.7,47.4
1777806762.3675177,-0.11731588134765625,0.076614453125,9.804255798339844,0.002398162396946565,0.022915774015267176,-0.0010658499541984733,18.75,24.3,47.25
1777806762.3814964,-0.11731588134765625,0.076614453125,9.804255798339844,0.0021316999083969466,0.0261133238778626,-0.00319754986259542,17.4,24.15,48.6
1777806762.3956182,-0.1197100830078125,0.076614453125,9.753977563476562,0.007460949679389314,0.024781011435114506,-0.0026646248854961837,16.8,23.25,48.3
1777806762.4096882,-0.13168109130859373,0.08379705810546874,9.72285294189453,0.00319754986259542,0.05275957273282444,0.00639509972519084,17.849999999999998,24.599999999999998,48.0
1777806762.4236805,-0.14125789794921875,0.0718260498046875,9.7683427734375,0.0013323124427480919,0.01945176166412214,-0.008260337145038169,16.2,25.95,48.15
1777806762.437672,-0.16998831787109375,0.023942016601562498,9.79946739501953,0.006661562213740459,0.028245023786259545,0.0010658499541984733,17.4,24.9,48.6
1777806762.4516587,-0.16998831787109375,0.023942016601562498,9.79946739501953,0.006661562213740459,0.062352222320610697,0.02105053659541985,16.8,25.349999999999998,47.25
1777806762.4656475,-0.16280571289062498,0.11731588134765625,9.665392102050781,0.00479632479389313,0.008526799633587786,-0.005595712259541985,16.95,24.15,47.85
1777806762.479648,-0.11013327636718749,0.1197100830078125,9.715670336914062,0.0010658499541984733,-0.004263399816793893,-0.0061286372366412215,16.95,24.15,47.85
1777806762.493772,-0.143652099609375,0.07422025146484375,9.725247143554688,0.0053292497709923675,0.0061286372366412215,-0.010392037053435116,16.95,23.7,47.4
1777806762.5078015,-0.143652099609375,0.07422025146484375,9.725247143554688,0.0061286372366412215,0.017320061755725192,-0.008526799633587786,17.55,25.8,47.699999999999996
1777806762.5220442,-0.12689268798828124,0.08140285644531249,9.744400756835937,0.0061286372366412215,0.023715161480916035,-0.000799387465648855,17.7,25.95,49.35
1777806762.5360916,-0.076614453125,0.08379705810546874,9.720458740234374,0.008793262122137404,0.012257274473282443,-0.004263399816793893,16.8,24.599999999999998,48.75
1777806762.5500927,-0.12689268798828124,0.08858546142578125,9.708487731933593,0.005062787282442748,-0.011724349496183208,-0.010125574564885496,16.8,24.599999999999998,48.75
1777806762.5641124,-0.12689268798828124,0.08858546142578125,9.708487731933593,0.0026646248854961837,-0.007194487190839696,-0.00959264958778626,16.349999999999998,25.349999999999998,49.05
1777806762.5781744,-0.11252747802734374,0.055066638183593745,9.765948571777344,-0.0002664624885496183,0.03064318618320611,0.00159877493129771,17.7,25.95,47.4
1777806762.5922754,-0.11731588134765625,0.076614453125,9.758765966796874,0.0021316999083969466,0.04103522323664122,0.00799387465648855,17.7,25.95,47.4
1777806762.606335,-0.11013327636718749,0.09816226806640624,9.730035546875,0.000799387465648855,0.03224196111450382,-0.0021316999083969466,18.15,24.45,48.6
1777806762.6203268,-0.11013327636718749,0.09816226806640624,9.730035546875,0.0053292497709923675,0.016787136778625956,-0.016254211801526718,16.95,26.7,48.9
1777806762.6343207,-0.13646949462890623,0.07900865478515624,9.725247143554688,0.004529862305343512,0.02531393641221374,-0.004529862305343512,15.75,25.95,46.8
1777806762.648319,-0.06703764648437499,0.04548983154296875,9.789890588378906,0.003996937328244275,0.0450321605648855,0.004263399816793893,17.099999999999998,25.05,48.3
1777806762.6623037,-0.1580173095703125,0.06943184814453125,9.72285294189453,0.005062787282442748,0.008260337145038169,-0.004529862305343512,16.5,23.7,48.6
1777806762.6762884,-0.1197100830078125,0.0526724365234375,9.732429748535155,0.005595712259541985,0.017053599267175572,-0.012523736961832063,16.8,24.3,48.3
1777806762.690273,-0.1197100830078125,0.0526724365234375,9.732429748535155,0.007727412167938932,0.028777948763358784,-0.006928024702290077,18.45,24.15,47.4
1777806762.7042444,-0.1388636962890625,0.023942016601562498,9.715670336914062,0.004529862305343512,0.06128637236641222,-0.00319754986259542,18.45,24.15,47.4
1777806762.7182338,-0.09816226806640624,0.1005564697265625,9.6917283203125,0.0026646248854961837,0.04716386047328244,-0.006928024702290077,16.95,25.2,48.9
1777806762.7322369,-0.12689268798828124,0.10295067138671875,9.70369932861328,0.010924962030534353,0.010924962030534353,-0.0159877493129771,17.849999999999998,24.0,48.0
1777806762.7462535,-0.12689268798828124,0.10295067138671875,9.70369932861328,0.008526799633587786,0.006928024702290077,-0.02105053659541985,15.899999999999999,24.599999999999998,47.699999999999996
1777806762.76024,-0.12449848632812499,0.062249243164062495,9.734823950195311,0.005595712259541985,0.01279019945038168,-0.020251149129770992,17.55,24.599999999999998,48.3
1777806762.7742255,-0.13407529296874998,0.0430956298828125,9.782707983398437,-0.0005329249770992366,0.021583461572519086,0.0026646248854961837,16.5,25.95,47.1
1777806762.7882085,-0.09337386474609374,0.08379705810546874,9.72285294189453,0.0018652374198473284,0.0018652374198473284,0.007460949679389314,16.95,25.2,49.949999999999996
1777806762.802184,-0.09337386474609374,0.08379705810546874,9.72285294189453,0.002398162396946565,0.006928024702290077,-0.0018652374198473284,16.349999999999998,24.0,48.3
1777806762.8161654,-0.1149216796875,0.05746083984375,9.751583361816406,0.003730474839694657,0.017320061755725192,-0.002398162396946565,17.4,25.5,48.9
1777806762.8301418,-0.10773907470703124,0.0909796630859375,9.7683427734375,0.008793262122137404,0.003730474839694657,-0.02558039890076336,17.4,25.5,48.9
1777806762.8441255,-0.09337386474609374,0.0430956298828125,9.730035546875,0.01279019945038168,-0.000799387465648855,-0.031442573648854964,16.8,25.05,48.0
1777806762.858104,-0.09337386474609374,0.0430956298828125,9.730035546875,0.007727412167938932,0.036238898442748094,-0.02078407410687023,16.8,24.599999999999998,49.5
1777806762.8721051,-0.13646949462890623,0.047884033203124995,9.811438403320311,0.0026646248854961837,0.0450321605648855,-0.007727412167938932,16.2,24.15,48.6
1777806762.8860898,-0.1005564697265625,0.03591302490234375,9.739612353515625,0.012257274473282443,0.031176111160305348,-0.028777948763358784,17.849999999999998,24.3,49.05
1777806762.9000869,-0.16998831787109375,0.11252747802734374,9.686939916992188,0.006661562213740459,0.033307811068702294,-0.03064318618320611,16.2,25.2,48.15
1777806762.9140632,-0.16998831787109375,0.11252747802734374,9.686939916992188,0.00799387465648855,-0.009326187099236643,-0.035705973465648855,17.7,24.9,48.15
1777806762.9280455,-0.12449848632812499,0.1005564697265625,9.706093530273437,0.002931087374045802,-0.016254211801526718,-0.037571210885496184,15.0,25.5,48.15
1777806762.9420877,-0.0909796630859375,0.1005564697265625,9.76116016845703,-0.000799387465648855,0.004529862305343512,-0.02531393641221374,15.0,25.5,48.15
1777806762.9561439,-0.1292868896484375,0.016759411621093748,9.74200655517578,0.002931087374045802,0.03703828590839695,-0.013589586916030535,16.349999999999998,26.4,48.3
1777806762.9701371,-0.13407529296874998,0.10773907470703124,9.6917283203125,0.0002664624885496183,0.031442573648854964,-0.006928024702290077,15.45,24.45,47.4
1777806762.9841218,-0.13407529296874998,0.10773907470703124,9.6917283203125,0.00985911207633588,0.0013323124427480919,-0.008793262122137404,17.099999999999998,25.05,48.3
1777806762.998108,-0.1388636962890625,0.08379705810546874,9.749189160156249,0.006928024702290077,-0.003730474839694657,-0.0010658499541984733,16.2,25.2,48.9
1777806763.0121045,-0.10773907470703124,0.11252747802734374,9.777919580078125,0.003730474839694657,-0.003996937328244275,-0.007194487190839696,16.349999999999998,25.05,48.0
1777806763.0260825,-0.07422025146484375,0.055066638183593745,9.758765966796874,0.00159877493129771,0.028777948763358784,0.00319754986259542,16.8,26.849999999999998,47.25
1777806763.0400727,-0.07422025146484375,0.055066638183593745,9.758765966796874,0.00159877493129771,0.034107198534351145,0.000799387465648855,15.6,25.349999999999998,49.5
1777806763.054051,-0.08140285644531249,0.05027823486328125,9.730035546875,0.005062787282442748,0.02424808645801527,-0.0002664624885496183,15.6,25.349999999999998,49.5
1777806763.068042,-0.09337386474609374,0.10295067138671875,9.751583361816406,0.0061286372366412215,-0.0002664624885496183,-0.008526799633587786,16.5,25.2,47.85
1777806763.0820255,-0.08140285644531249,0.11252747802734374,9.665392102050781,0.007460949679389314,-0.008526799633587786,-0.014921899358778627,17.099999999999998,24.599999999999998,47.699999999999996
1777806763.09601,-0.08140285644531249,0.11252747802734374,9.665392102050781,0.00159877493129771,0.012523736961832063,-0.0034640123511450386,14.85,24.599999999999998,48.0
1777806763.1099951,-0.13168109130859373,0.07422025146484375,9.765948571777344,0.0002664624885496183,0.030376723694656493,0.002398162396946565,17.099999999999998,25.05,48.3
1777806763.1239827,-0.143652099609375,0.105344873046875,9.763554370117188,0.0026646248854961837,0.028511486274809164,-0.005062787282442748,17.849999999999998,24.0,48.3
1777806763.1380243,-0.028730419921875,0.08379705810546874,9.710881933593749,0.005062787282442748,0.028777948763358784,-0.005862174748091604,15.6,24.0,47.699999999999996
1777806763.1520112,-0.028730419921875,0.08379705810546874,9.710881933593749,0.005595712259541985,0.023448698992366415,-0.00639509972519084,15.45,24.15,48.6
1777806763.1659913,-0.10773907470703124,0.12210428466796874,9.734823950195311,0.0053292497709923675,0.006661562213740459,-0.005595712259541985,15.75,25.95,49.35
1777806763.1799886,-0.15322890625,0.05746083984375,9.706093530273437,0.007194487190839696,0.012523736961832063,-0.009326187099236643,15.75,25.95,49.35
1777806763.1940596,-0.1292868896484375,0.05985504150390625,9.751583361816406,0.0034640123511450386,0.028245023786259545,-0.0034640123511450386,16.8,25.349999999999998,48.0
1777806763.2080948,-0.07900865478515624,0.06943184814453125,9.74200655517578,0.002931087374045802,0.031709036137404584,-0.003996937328244275,16.349999999999998,24.599999999999998,49.8
1777806763.2221417,-0.07900865478515624,0.06943184814453125,9.74200655517578,-0.00159877493129771,0.022915774015267176,-0.002398162396946565,17.55,25.05,48.75
1777806763.2361317,-0.0909796630859375,0.10773907470703124,9.737218151855469,0.003996937328244275,0.024514548946564886,-0.006661562213740459,17.849999999999998,26.4,48.3
1777806763.2502098,-0.1580173095703125,0.0718260498046875,9.6917283203125,0.005862174748091604,0.03597243595419848,-0.000799387465648855,17.849999999999998,24.599999999999998,49.5
1777806763.2642267,-0.11252747802734374,0.0909796630859375,9.670180505371093,0.003730474839694657,0.01971822415267176,-0.0061286372366412215,17.099999999999998,25.349999999999998,47.699999999999996
1777806763.2783117,-0.11252747802734374,0.0909796630859375,9.670180505371093,0.004529862305343512,0.0261133238778626,0.0018652374198473284,15.75,23.7,47.85
1777806763.2924652,-0.11252747802734374,0.062249243164062495,9.730035546875,0.009059724610687023,0.026646248854961835,-0.002931087374045802,15.75,23.7,47.85
1777806763.306553,-0.13168109130859373,0.1388636962890625,9.701305126953125,0.0053292497709923675,0.013323124427480917,-0.00639509972519084,16.95,24.15,47.4
1777806763.3205602,-0.143652099609375,0.062249243164062495,9.698910925292969,0.0053292497709923675,0.028777948763358784,-0.011724349496183208,18.15,25.5,47.1
1777806763.3346062,-0.143652099609375,0.062249243164062495,9.698910925292969,0.007727412167938932,0.019984686641221373,-0.010658499541984735,15.899999999999999,25.349999999999998,48.75
1777806763.348632,-0.076614453125,0.0526724365234375,9.756371765136718,0.004529862305343512,0.02051761161832061,0.004263399816793893,17.55,25.05,49.05
1777806763.3626332,-0.08858546142578125,0.09337386474609374,9.751583361816406,0.0021316999083969466,0.021849924061068705,0.0061286372366412215,18.15,23.7,47.85
1777806763.3766224,-0.09337386474609374,0.11013327636718749,9.794678991699218,0.007727412167938932,0.01971822415267176,-0.0026646248854961837,16.95,24.45,47.85
1777806763.390607,-0.09337386474609374,0.11013327636718749,9.794678991699218,0.0,0.05462481015267176,0.007460949679389314,17.55,24.3,48.0
1777806763.4045877,-0.08140285644531249,0.0383072265625,9.706093530273437,0.0026646248854961837,0.00319754986259542,-0.009326187099236643,17.55,24.3,48.0
1777806763.4185746,-0.1149216796875,0.11013327636718749,9.801861596679688,0.008526799633587786,0.013323124427480917,-0.021583461572519086,17.849999999999998,24.0,48.75
1777806763.432554,-0.13168109130859373,0.047884033203124995,9.718064538574218,0.005862174748091604,0.023715161480916035,-0.01945176166412214,17.4,24.45,48.6
1777806763.4465322,-0.047884033203124995,0.09576806640624999,9.706093530273437,0.009326187099236643,0.0053292497709923675,-0.01279019945038168,16.349999999999998,25.349999999999998,48.3
1777806763.4605305,-0.047884033203124995,0.09576806640624999,9.706093530273437,0.011724349496183208,0.02558039890076336,-0.008526799633587786,16.2,25.95,48.9
1777806763.4745188,-0.047884033203124995,0.05027823486328125,9.756371765136718,0.004529862305343512,0.04609801051908398,-0.003730474839694657,17.099999999999998,26.849999999999998,46.949999999999996
1777806763.4885275,-0.1292868896484375,0.08858546142578125,9.706093530273437,0.0,0.031176111160305348,0.003996937328244275,17.099999999999998,25.349999999999998,48.3
1777806763.5024662,-0.14125789794921875,0.04548983154296875,9.7683427734375,0.002931087374045802,0.02211638654961832,-0.01119142451908397,16.349999999999998,25.8,48.0
1777806763.516459,-0.14125789794921875,0.04548983154296875,9.7683427734375,0.00319754986259542,0.036238898442748094,-0.0002664624885496183,17.849999999999998,24.0,48.0
1777806763.5304432,-0.16280571289062498,0.10295067138671875,9.660603698730467,0.008793262122137404,-0.029843798717557254,-0.015188361847328247,17.849999999999998,24.0,48.0
1777806763.5444982,-0.086191259765625,0.04548983154296875,9.725247143554688,0.008260337145038169,-0.030376723694656493,-0.01971822415267176,15.149999999999999,26.099999999999998,48.3
1777806763.558482,-0.13646949462890623,0.0718260498046875,9.765948571777344,0.003730474839694657,0.018119449221374047,-0.0010658499541984733,17.099999999999998,24.0,48.3
1777806763.5724826,-0.13646949462890623,0.0718260498046875,9.765948571777344,0.0018652374198473284,0.015454824335877864,-0.005862174748091604,16.95,24.15,49.65
1777806763.5864704,-0.1005564697265625,0.07900865478515624,9.758765966796874,0.00639509972519084,0.018119449221374047,-0.010392037053435116,17.099999999999998,24.599999999999998,47.699999999999996
1777806763.600453,-0.076614453125,0.06464344482421874,9.734823950195311,0.00799387465648855,0.03677182341984733,-0.0061286372366412215,18.9,25.5,47.4
1777806763.614453,-0.086191259765625,0.06464344482421874,9.670180505371093,0.017320061755725192,0.006661562213740459,-0.0421010731908397,17.849999999999998,25.8,48.3
1777806763.6284456,-0.086191259765625,0.06464344482421874,9.670180505371093,0.008526799633587786,-0.002931087374045802,-0.04956202287022901,17.849999999999998,26.099999999999998,47.699999999999996
1777806763.6424313,-0.10295067138671875,0.05985504150390625,9.7683427734375,0.00985911207633588,0.0159877493129771,-0.0261133238778626,17.849999999999998,26.099999999999998,47.699999999999996
1777806763.6564221,-0.06464344482421874,0.0526724365234375,9.751583361816406,0.011724349496183208,0.027978561297709925,-0.030110261206106874,16.349999999999998,24.599999999999998,48.3
1777806763.6704137,-0.07900865478515624,0.0909796630859375,9.70369932861328,0.00159877493129771,0.030376723694656493,-0.029843798717557254,16.5,24.9,48.6
1777806763.6844015,-0.07900865478515624,0.0909796630859375,9.70369932861328,0.0061286372366412215,0.03357427355725191,-0.014921899358778627,18.3,23.25,47.699999999999996
1777806763.6984034,-0.10295067138671875,0.02633621826171875,9.651026892089844,0.00639509972519084,0.028777948763358784,-0.014921899358778627,18.45,25.2,48.15
1777806763.71239,-0.1388636962890625,0.055066638183593745,9.660603698730467,0.000799387465648855,-0.0450321605648855,-0.05968759743511451,16.349999999999998,25.349999999999998,48.0
1777806763.7263834,-0.023942016601562498,0.02633621826171875,9.801861596679688,0.003730474839694657,-0.008793262122137404,-0.046630935496183204,17.7,25.2,48.15
1777806763.740433,-0.10295067138671875,0.11252747802734374,9.730035546875,0.004529862305343512,0.034640123511450384,-0.022915774015267176,16.95,24.9,48.15
1777806763.7544184,-0.10295067138671875,0.11252747802734374,9.730035546875,0.0013323124427480919,0.014921899358778627,-0.029044411251908403,16.95,24.9,48.15
1777806763.7684014,-0.0909796630859375,0.105344873046875,9.701305126953125,0.0053292497709923675,0.02078407410687023,-0.02051761161832061,17.099999999999998,25.8,47.699999999999996
1777806763.7823946,-0.12689268798828124,0.05985504150390625,9.730035546875,0.0021316999083969466,0.03650536093129771,-0.0026646248854961837,16.5,25.5,48.6
1777806763.7965574,-0.086191259765625,0.09816226806640624,9.734823950195311,-0.000799387465648855,0.010392037053435116,-0.003730474839694657,17.7,24.9,47.85
1777806763.8106313,-0.086191259765625,0.09816226806640624,9.734823950195311,-0.0010658499541984733,0.0053292497709923675,-0.00639509972519084,15.75,25.5,47.85
1777806763.8247535,-0.11013327636718749,0.06464344482421874,9.775525378417969,-0.0010658499541984733,0.0319754986259542,0.0018652374198473284,18.15,25.2,47.1
1777806763.838776,-0.105344873046875,0.055066638183593745,9.785102185058593,-0.0010658499541984733,0.04449923558778626,0.015188361847328247,17.849999999999998,25.349999999999998,48.3
1777806763.8527675,-0.09576806640624999,0.12449848632812499,9.70369932861328,0.007727412167938932,0.016787136778625956,0.0034640123511450386,16.95,24.15,49.65
1777806763.866763,-0.09576806640624999,0.12449848632812499,9.70369932861328,0.0061286372366412215,0.029577336229007635,-0.008526799633587786,18.15,24.9,50.4
1777806763.880823,-0.14604630126953125,0.06943184814453125,9.718064538574218,0.004263399816793893,0.04290046065648855,-0.009326187099236643,18.15,24.9,50.4
1777806763.8948321,-0.12210428466796874,0.0718260498046875,9.739612353515625,0.006661562213740459,0.0319754986259542,-0.00799387465648855,18.45,25.2,48.6
1777806763.9088178,-0.1292868896484375,0.05746083984375,9.72285294189453,0.00159877493129771,0.042367535679389313,0.0021316999083969466,17.099999999999998,25.349999999999998,49.8
1777806763.9228077,-0.1292868896484375,0.05746083984375,9.72285294189453,0.006928024702290077,0.02051761161832061,0.0026646248854961837,17.4,25.2,48.9
1777806763.9368868,-0.1292868896484375,0.1771709228515625,9.744400756835937,0.00319754986259542,0.031176111160305348,0.004529862305343512,17.4,24.45,48.9
1777806763.950936,-0.10295067138671875,0.06703764648437499,9.7683427734375,0.003996937328244275,0.05755589752671757,0.003730474839694657,17.7,23.7,48.15
1777806763.9650497,-0.09337386474609374,0.086191259765625,9.701305126953125,0.0010658499541984733,0.03943644830534352,-0.011457887007633588,16.95,26.25,49.35
1777806763.97914,-0.1580173095703125,0.16280571289062498,9.720458740234374,0.0013323124427480919,0.024781011435114506,-0.005862174748091604,17.849999999999998,23.25,49.8
1777806763.9931486,-0.1580173095703125,0.16280571289062498,9.720458740234374,0.003996937328244275,0.010658499541984735,-0.00985911207633588,17.849999999999998,23.25,49.8
1777806764.0071354,-0.09816226806640624,0.07900865478515624,9.758765966796874,0.0034640123511450386,0.011724349496183208,-0.008526799633587786,17.7,24.15,48.15
1777806764.0211303,-0.13646949462890623,0.0718260498046875,9.78031378173828,0.008260337145038169,0.029843798717557254,-0.00985911207633588,16.95,24.15,48.9
1777806764.0351148,-0.08379705810546874,0.06464344482421874,9.727641345214844,0.007460949679389314,0.04023583577099237,-0.01119142451908397,16.2,24.9,48.6
1777806764.0490975,-0.08379705810546874,0.06464344482421874,9.727641345214844,0.0021316999083969466,0.024514548946564886,-0.004263399816793893,18.3,25.8,49.05
1777806764.0630782,-0.15562310791015624,0.07422025146484375,9.7683427734375,0.005862174748091604,0.014122511893129772,-0.011724349496183208,17.849999999999998,24.0,49.05
1777806764.0770586,-0.15083470458984374,0.1005564697265625,9.737218151855469,0.006928024702290077,0.010125574564885496,-0.007727412167938932,17.7,25.5,46.8
1777806764.0910492,-0.12449848632812499,0.055066638183593745,9.765948571777344,0.0002664624885496183,0.01945176166412214,-0.006928024702290077,17.4,25.2,48.6
1777806764.105036,-0.12449848632812499,0.055066638183593745,9.765948571777344,0.007460949679389314,0.0319754986259542,-0.0034640123511450386,17.4,25.2,48.6
1777806764.1190205,-0.1149216796875,0.06943184814453125,9.746794958496093,0.004263399816793893,0.03703828590839695,-0.0053292497709923675,15.75,25.2,48.15
1777806764.1330094,-0.0718260498046875,0.05985504150390625,9.639055883789062,0.003730474839694657,0.010658499541984735,-0.014122511893129772,17.7,25.2,49.35
1777806764.1470568,-0.15083470458984374,0.06703764648437499,9.718064538574218,0.005862174748091604,0.010658499541984735,-0.008793262122137404,17.4,26.25,47.85
1777806764.1610465,-0.15083470458984374,0.06703764648437499,9.718064538574218,0.005062787282442748,0.020251149129770992,-0.00639509972519084,17.099999999999998,25.349999999999998,48.75
1777806764.175032,-0.062249243164062495,0.023942016601562498,9.74200655517578,-0.0010658499541984733,0.03064318618320611,0.000799387465648855,17.849999999999998,25.349999999999998,48.3
1777806764.1890247,-0.11731588134765625,0.0526724365234375,9.74200655517578,-0.003996937328244275,0.030376723694656493,-0.0010658499541984733,16.2,25.2,49.35
1777806764.2030432,-0.15083470458984374,0.0143652099609375,9.751583361816406,0.0013323124427480919,0.04769678545038168,-0.00159877493129771,16.5,24.15,48.9
1777806764.217679,-0.13407529296874998,0.08140285644531249,9.677363110351562,0.0018652374198473284,0.011724349496183208,-0.013323124427480917,18.9,25.2,49.35
1777806764.2320077,-0.13407529296874998,0.08140285644531249,9.677363110351562,0.00799387465648855,0.037571210885496184,-0.011457887007633588,18.9,25.2,49.35
1777806764.2462027,-0.14125789794921875,0.105344873046875,9.809044201660155,0.006928024702290077,0.045298623053435114,-0.013323124427480917,17.55,24.599999999999998,48.0
1777806764.2602823,-0.08858546142578125,0.06703764648437499,9.749189160156249,0.003996937328244275,0.033307811068702294,-0.008260337145038169,17.55,26.099999999999998,47.25
1777806764.2743127,-0.13646949462890623,0.047884033203124995,9.718064538574218,-0.0026646248854961837,0.022915774015267176,-0.01119142451908397,16.349999999999998,26.099999999999998,48.0
1777806764.288351,-0.13646949462890623,0.047884033203124995,9.718064538574218,-0.000799387465648855,0.0319754986259542,0.0018652374198473284,17.55,24.3,48.0
1777806764.3023403,-0.143652099609375,0.09337386474609374,9.770736975097655,0.00959264958778626,0.021583461572519086,-0.015188361847328247,16.8,25.05,48.3
1777806764.3163345,-0.1149216796875,0.047884033203124995,9.686939916992188,0.0034640123511450386,0.015188361847328247,-0.020251149129770992,17.55,25.8,47.699999999999996
1777806764.330315,-0.1292868896484375,0.0526724365234375,9.734823950195311,0.009059724610687023,0.03943644830534352,-0.011990811984732825,15.899999999999999,25.05,48.0
1777806764.3443537,-0.1292868896484375,0.0526724365234375,9.734823950195311,-0.0018652374198473284,0.05595712259541985,0.006661562213740459,15.899999999999999,25.05,48.0
1777806764.3583426,-0.13646949462890623,0.09816226806640624,9.78031378173828,-0.002398162396946565,0.05062787282442748,0.012523736961832063,17.7,26.25,49.35
1777806764.3723323,-0.13407529296874998,0.0526724365234375,9.708487731933593,-0.0061286372366412215,0.023715161480916035,0.007460949679389314,16.8,24.3,46.5
1777806764.3863332,-0.08379705810546874,0.16041151123046873,9.720458740234374,0.0061286372366412215,0.004263399816793893,-0.011990811984732825,16.8,25.05,49.5
1777806764.4003267,-0.0909796630859375,0.0909796630859375,9.804255798339844,0.008793262122137404,0.00799387465648855,-0.014921899358778627,16.5,24.15,49.35
1777806764.4143114,-0.0909796630859375,0.0909796630859375,9.804255798339844,0.011724349496183208,0.039969373282442745,-0.014655436870229008,17.7,24.9,48.15
1777806764.4282937,-0.105344873046875,0.0909796630859375,9.718064538574218,0.010392037053435116,0.03863706083969466,-0.018652374198473286,16.2,25.2,47.85
1777806764.4422815,-0.1292868896484375,0.06464344482421874,9.698910925292969,0.009326187099236643,0.02238284903816794,-0.017586524244274808,16.95,24.45,46.35
1777806764.4562678,-0.11013327636718749,0.047884033203124995,9.708487731933593,0.009059724610687023,0.02637978636641222,-0.014921899358778627,18.75,25.349999999999998,48.3
1777806764.470985,-0.11013327636718749,0.047884033203124995,9.708487731933593,0.01119142451908397,0.02131699908396947,-0.0261133238778626,18.75,25.349999999999998,48.3
1777806764.4849746,-0.18914193115234373,0.076614453125,9.737218151855469,0.010125574564885496,0.007727412167938932,-0.040502298259541984,16.95,25.5,48.6
1777806764.4989657,-0.1484405029296875,0.12689268798828124,9.68454571533203,0.003996937328244275,0.002931087374045802,-0.023182236503816796,16.8,25.8,48.75
1777806764.5129476,-0.09816226806640624,0.086191259765625,9.720458740234374,0.0026646248854961837,0.00479632479389313,-0.019984686641221373,15.899999999999999,26.849999999999998,47.699999999999996
1777806764.526936,-0.09816226806640624,0.086191259765625,9.720458740234374,0.011724349496183208,0.034906586,-0.015721286824427482,16.5,24.9,48.6
1777806764.5409794,-0.12210428466796874,0.03591302490234375,9.732429748535155,0.003730474839694657,0.03090964867175573,-0.014921899358778627,16.5,24.9,48.6
1777806764.5549698,-0.1388636962890625,0.06943184814453125,9.86411083984375,0.000799387465648855,0.04396631061068702,-0.016254211801526718,17.55,26.849999999999998,50.25
1777806764.5689538,-0.19871873779296872,0.0430956298828125,9.770736975097655,0.011457887007633588,0.009326187099236643,-0.02584686138931298,18.15,24.9,49.35
1777806764.5829346,-0.19871873779296872,0.0430956298828125,9.770736975097655,0.0034640123511450386,-0.02637978636641222,-0.01918529917557252,18.15,24.9,49.35
1777806764.5969794,-0.143652099609375,0.0909796630859375,9.770736975097655,-0.0026646248854961837,0.003730474839694657,-0.002398162396946565,18.3,25.8,49.8
1777806764.610983,-0.13168109130859373,0.1005564697265625,9.727641345214844,-0.00159877493129771,0.037571210885496184,0.010392037053435116,18.15,24.9,48.9
1777806764.6249716,-0.13168109130859373,0.09337386474609374,9.706093530273437,-0.0021316999083969466,0.035705973465648855,0.018385911709923666,16.2,24.9,48.15
1777806764.63896,-0.1388636962890625,0.09337386474609374,9.641450085449218,0.004263399816793893,0.00985911207633588,0.00639509972519084,17.7,24.9,46.35
1777806764.6529362,-0.1388636962890625,0.09337386474609374,9.641450085449218,0.0021316999083969466,-0.014921899358778627,-0.0053292497709923675,16.95,24.15,48.15
1777806764.6669242,-0.10773907470703124,0.03591302490234375,9.789890588378906,0.0021316999083969466,0.013856049404580155,-0.008526799633587786,15.6,25.05,48.75
1777806764.6809874,-0.105344873046875,0.047884033203124995,9.715670336914062,0.0018652374198473284,0.031176111160305348,0.0010658499541984733,18.45,25.2,48.15
1777806764.694992,-0.14604630126953125,0.06943184814453125,9.756371765136718,0.0018652374198473284,0.03064318618320611,0.0013323124427480919,18.45,25.2,48.15
1777806764.7089772,-0.14604630126953125,0.06943184814453125,9.756371765136718,0.003730474839694657,0.01119142451908397,-0.00319754986259542,17.849999999999998,24.599999999999998,48.75
1777806764.723073,-0.15083470458984374,0.09576806640624999,9.725247143554688,0.013323124427480917,-0.0013323124427480919,-0.014388974381679392,14.549999999999999,24.9,48.9
1777806764.7371492,-0.17238251953125,0.05027823486328125,9.753977563476562,0.003730474839694657,0.000799387465648855,-0.014921899358778627,17.7,24.9,47.85
1777806764.751134,-0.11252747802734374,0.11731588134765625,9.730035546875,-0.000799387465648855,0.039169985816793894,0.0021316999083969466,16.95,24.45,47.85
1777806764.7651248,-0.11252747802734374,0.11731588134765625,9.730035546875,0.004263399816793893,0.04583154803053435,0.0013323124427480919,17.4,24.45,47.85
1777806764.7791169,-0.14604630126953125,0.08140285644531249,9.765948571777344,0.0034640123511450386,0.04396631061068702,0.004263399816793893,18.45,24.15,47.85
1777806764.7930963,-0.16041151123046873,0.10773907470703124,9.698910925292969,0.0,0.031709036137404584,-0.00319754986259542,16.5,24.15,48.15
1777806764.8070803,-0.09576806640624999,0.07422025146484375,9.749189160156249,0.005862174748091604,0.010658499541984735,-0.015454824335877864,17.55,24.599999999999998,48.3
1777806764.8210652,-0.09576806640624999,0.07422025146484375,9.749189160156249,0.00959264958778626,0.01119142451908397,-0.015721286824427482,17.55,24.599999999999998,48.3
1777806764.8350525,-0.12210428466796874,0.06703764648437499,9.749189160156249,0.000799387465648855,0.05862174748091603,0.005595712259541985,17.55,24.599999999999998,48.0
1777806764.8490345,-0.14125789794921875,0.03591302490234375,9.698910925292969,-0.004529862305343512,0.023182236503816796,0.0013323124427480919,16.8,25.349999999999998,48.3
1777806764.863014,-0.1580173095703125,0.06943184814453125,9.76116016845703,0.011724349496183208,0.00959264958778626,-0.010658499541984735,17.849999999999998,25.349999999999998,48.75
1777806764.8769975,-0.13407529296874998,0.062249243164062495,9.775525378417969,0.006928024702290077,0.02558039890076336,-0.006661562213740459,15.75,26.7,48.15
1777806764.8909802,-0.13407529296874998,0.062249243164062495,9.775525378417969,0.0021316999083969466,0.033041348580152674,-0.002398162396946565,17.849999999999998,24.3,47.699999999999996
1777806764.9049664,-0.13646949462890623,0.03591302490234375,9.708487731933593,0.007194487190839696,-0.010924962030534353,-0.012257274473282443,16.95,25.2,49.35
1777806764.9189641,-0.12449848632812499,0.06703764648437499,9.765948571777344,0.0061286372366412215,-0.017852986732824427,-0.014655436870229008,17.4,25.95,48.9
1777806764.932943,-0.2154781494140625,0.0383072265625,9.701305126953125,0.00799387465648855,0.037837673374045803,-0.004263399816793893,17.4,25.95,48.9
1777806764.946995,-0.2154781494140625,0.0383072265625,9.701305126953125,0.00479632479389313,0.037571210885496184,-0.002931087374045802,16.2,23.4,46.8
1777806764.9610226,-0.11731588134765625,0.040701428222656245,9.787496386718749,0.0053292497709923675,0.005862174748091604,-0.008793262122137404,16.349999999999998,24.599999999999998,47.699999999999996
1777806764.9750175,-0.05985504150390625,0.07422025146484375,9.749189160156249,0.002398162396946565,0.01971822415267176,-0.002398162396946565,15.899999999999999,25.8,46.949999999999996
1777806764.9890022,-0.11013327636718749,0.0526724365234375,9.746794958496093,0.005862174748091604,0.02238284903816794,-0.00159877493129771,17.849999999999998,25.349999999999998,48.0
1777806765.0029953,-0.11013327636718749,0.0526724365234375,9.746794958496093,0.00639509972519084,0.03357427355725191,0.0013323124427480919,16.5,24.9,48.15
1777806765.016983,-0.10295067138671875,0.12210428466796874,9.672574707031249,0.0018652374198473284,0.0013323124427480919,-0.0010658499541984733,17.099999999999998,26.099999999999998,49.5
1777806765.030978,-0.143652099609375,0.0383072265625,9.730035546875,0.005595712259541985,-0.010125574564885496,-0.010125574564885496,17.4,24.9,47.85
1777806765.045016,-0.13168109130859373,0.08858546142578125,9.76116016845703,0.00159877493129771,-0.00639509972519084,-0.0130566619389313,17.4,24.9,47.85
1777806765.059007,-0.13168109130859373,0.08858546142578125,9.76116016845703,0.005595712259541985,0.028511486274809164,-0.007727412167938932,17.849999999999998,25.05,48.0
1777806765.0729928,-0.13407529296874998,0.01915361328125,9.777919580078125,0.010392037053435116,0.024514548946564886,-0.01119142451908397,18.45,25.5,48.15
1777806765.0869708,-0.16041151123046873,0.06703764648437499,9.732429748535155,0.002931087374045802,0.017320061755725192,0.00319754986259542,16.5,24.15,49.35
1777806765.1009488,-0.09816226806640624,0.10295067138671875,9.701305126953125,0.00959264958778626,0.0018652374198473284,-0.0130566619389313,17.849999999999998,26.849999999999998,49.5
1777806765.1149411,-0.17956512451171874,0.06943184814453125,9.746794958496093,0.009326187099236643,-0.00799387465648855,-0.021849924061068705,17.55,25.349999999999998,46.5
1777806765.1289237,-0.17956512451171874,0.06943184814453125,9.746794958496093,0.015454824335877864,0.005595712259541985,-0.021849924061068705,17.7,23.7,48.6
1777806765.1429613,-0.10295067138671875,0.01915361328125,9.775525378417969,0.00479632479389313,0.03730474839694657,-0.013589586916030535,16.349999999999998,25.349999999999998,48.75
1777806765.1569536,-0.10295067138671875,0.062249243164062495,9.696516723632811,0.002931087374045802,0.05569066010687024,-0.002398162396946565,17.849999999999998,26.099999999999998,48.75
1777806765.1709416,-0.076614453125,0.12210428466796874,9.725247143554688,0.004529862305343512,0.032508423603053435,0.0034640123511450386,17.849999999999998,26.099999999999998,48.75
1777806765.1849477,-0.076614453125,0.12210428466796874,9.725247143554688,0.0002664624885496183,-0.0010658499541984733,0.003996937328244275,15.899999999999999,25.349999999999998,48.3
1777806765.1989865,-0.16280571289062498,0.12210428466796874,9.739612353515625,0.005062787282442748,0.00799387465648855,-0.0021316999083969466,16.349999999999998,25.8,48.0
1777806765.2130616,-0.1005564697265625,0.040701428222656245,9.749189160156249,0.003730474839694657,0.028511486274809164,0.005062787282442748,17.55,25.8,47.699999999999996
1777806765.2270768,-0.05746083984375,0.040701428222656245,9.732429748535155,0.0018652374198473284,0.004263399816793893,-0.007194487190839696,17.4,25.95,47.4
1777806765.2412102,-0.05746083984375,0.040701428222656245,9.732429748535155,0.003730474839694657,-0.005595712259541985,-0.005062787282442748,15.6,24.599999999999998,48.0
1777806765.2553787,-0.1149216796875,0.1005564697265625,9.720458740234374,0.0013323124427480919,0.029843798717557254,0.008526799633587786,17.4,24.45,48.6
1777806765.2695944,-0.11013327636718749,0.13168109130859373,9.787496386718749,0.006661562213740459,-0.00985911207633588,-0.011457887007633588,16.8,24.599999999999998,47.699999999999996
1777806765.2837226,-0.0430956298828125,0.07422025146484375,9.751583361816406,0.008260337145038169,0.003730474839694657,-0.02051761161832061,16.8,24.599999999999998,47.699999999999996
1777806765.2977726,-0.0430956298828125,0.07422025146484375,9.751583361816406,0.008526799633587786,0.004263399816793893,-0.01945176166412214,15.6,24.599999999999998,47.25
1777806765.3117616,-0.105344873046875,0.11013327636718749,9.79946739501953,0.010924962030534353,-0.00639509972519084,-0.023448698992366415,17.849999999999998,25.05,49.05
1777806765.3257627,-0.086191259765625,0.055066638183593745,9.720458740234374,0.004263399816793893,0.004263399816793893,-0.02744563632061069,16.349999999999998,24.3,49.5
1777806765.3397973,-0.08140285644531249,0.047884033203124995,9.725247143554688,0.00639509972519084,0.03837059835114504,-0.007460949679389314,16.95,23.7,48.9
1777806765.3537765,-0.1197100830078125,0.0526724365234375,9.718064538574218,0.00479632479389313,0.037837673374045803,-0.009059724610687023,16.95,23.4,47.4
1777806765.3678203,-0.1197100830078125,0.0526724365234375,9.718064538574218,0.003996937328244275,0.029843798717557254,-0.005862174748091604,18.75,25.05,47.699999999999996
1777806765.3819418,-0.08379705810546874,0.076614453125,9.710881933593749,0.002931087374045802,0.008793262122137404,-0.016520674290076337,16.95,25.2,48.15
1777806765.395952,-0.16519991455078123,0.16998831787109375,9.89523546142578,0.0026646248854961837,-0.008793262122137404,-0.01279019945038168,16.95,25.2,48.15
1777806765.4099693,-0.0909796630859375,0.0047884033203125,9.720458740234374,-0.003730474839694657,-0.05995405992366413,-0.0061286372366412215,17.4,25.5,47.4
1777806765.423959,-0.0909796630859375,0.0047884033203125,9.720458740234374,0.005862174748091604,0.009326187099236643,-0.00959264958778626,16.95,25.5,47.4
1777806765.4379687,-0.11731588134765625,0.1771709228515625,9.871293444824218,0.005062787282442748,0.017586524244274808,-0.023448698992366415,17.7,26.25,48.6
1777806765.4519544,-0.09576806640624999,0.04548983154296875,9.751583361816406,0.004263399816793893,0.03863706083969466,0.003730474839694657,17.849999999999998,25.349999999999998,48.0
1777806765.4659486,-0.06703764648437499,0.06943184814453125,9.718064538574218,-0.005862174748091604,0.034640123511450384,0.017586524244274808,17.099999999999998,26.4,47.699999999999996
1777806765.4799356,-0.06703764648437499,0.06943184814453125,9.718064538574218,-0.00159877493129771,0.007194487190839696,0.017053599267175572,17.7,24.9,47.4
1777806765.4939156,-0.09576806640624999,0.05985504150390625,9.758765966796874,-0.0018652374198473284,0.024514548946564886,0.016254211801526718,16.95,25.2,48.15
1777806765.5079012,-0.047884033203124995,0.05746083984375,9.739612353515625,0.002398162396946565,0.00985911207633588,-0.003730474839694657,17.4,25.5,48.9
1777806765.521891,-0.076614453125,0.0718260498046875,9.708487731933593,0.004529862305343512,0.00479632479389313,-0.006661562213740459,17.4,25.5,48.9
1777806765.535938,-0.076614453125,0.0718260498046875,9.708487731933593,0.003730474839694657,0.0053292497709923675,-0.002398162396946565,16.2,24.9,47.85
1777806765.5499325,-0.05985504150390625,0.08140285644531249,9.689334118652344,-0.00799387465648855,0.017852986732824427,0.003996937328244275,17.55,25.349999999999998,45.75
1777806765.5639138,-0.13168109130859373,0.07900865478515624,9.770736975097655,-0.0013323124427480919,0.025047473923664125,0.0018652374198473284,17.099999999999998,24.0,49.5
1777806765.577894,-0.0047884033203125,0.05746083984375,9.734823950195311,0.000799387465648855,0.03650536093129771,0.005062787282442748,16.2,24.15,47.4
1777806765.5919144,-0.13646949462890623,0.07900865478515624,9.727641345214844,0.0026646248854961837,0.02584686138931298,-0.006928024702290077,17.7,25.2,48.6
1777806765.6059005,-0.13646949462890623,0.07900865478515624,9.727641345214844,0.0021316999083969466,0.033307811068702294,0.00639509972519084,18.3,25.349999999999998,48.75
1777806765.6198955,-0.076614453125,0.08379705810546874,9.710881933593749,0.00639509972519084,0.016787136778625956,0.006661562213740459,17.7,24.45,47.85
1777806765.6338835,-0.031124621582031248,0.09337386474609374,9.68454571533203,-0.0005329249770992366,0.011724349496183208,-0.0026646248854961837,17.7,24.45,47.85
